magic,version,size,sequence,dropped_records,timestamp_us,tick_ms,imu_sequence,raw_temperature,raw_accel_x,raw_accel_y,raw_accel_z,raw_gyro_x,raw_gyro_y,raw_gyro_z,temperature_c,accel_x_g,accel_y_g,accel_z_g,gyro_x_dps,gyro_y_dps,gyro_z_dps,roll_deg,pitch_deg,yaw_deg,rc_ch1_us,rc_ch2_us,rc_ch3_us,rc_ch4_us,rc_ch5_us,rc_ch6_us,rc_ch7_us,rc_ch8_us,throttle_us,servo_alpha_us,servo_beta_us,motor_upper_us,motor_lower_us,rc_armed,rc_link_ok,throttle_over_20,imu_valid,motor_output_reason,rc_link_seen,arm_switch_high,arm_throttle_low,arm_switch_seen_low,arm_switch_prev_high,imu_fault_latched,imu_fault_reason,motor_output_reason_name,acc_nav_m_s2_0,acc_nav_m_s2_1,acc_nav_m_s2_2,vel_est_m_s_0,vel_est_m_s_1,vel_est_m_s_2,vel_ref_m_s_0,vel_ref_m_s_1,vel_err_m_s_0,vel_err_m_s_1,vel_pid_out_m_s2_0,vel_pid_out_m_s2_1,vel_pid_p_m_s2_0,vel_pid_p_m_s2_1,vel_pid_i_m_s2_0,vel_pid_i_m_s2_1,vel_pid_d_m_s2_0,vel_pid_d_m_s2_1,vel_loop_active,ctrl_pos_p_m_s2_0,ctrl_pos_p_m_s2_1,ctrl_pos_p_m_s2_2,ctrl_vel_d_m_s2_0,ctrl_vel_d_m_s2_1,ctrl_vel_d_m_s2_2,ctrl_accel_out_m_s2_0,ctrl_accel_out_m_s2_1,ctrl_accel_out_m_s2_2,ctrl_tilt_ff_rad_0,ctrl_tilt_ff_rad_1,ctrl_tilt_rate_d_rad_0,ctrl_tilt_rate_d_rad_1,ctrl_tilt_out_rad_0,ctrl_tilt_out_rad_1,ctrl_yaw_angle_p_rad_s,ctrl_yaw_rate_d_rad_s,ctrl_yaw_torque_cmd,ctrl_total_force_n,ctrl_omega_cmd_rad_s_0,ctrl_omega_cmd_rad_s_1,z_ref_m,record_crc32,sector_seq,sector_index
827477062,2,292,1,0,0,0,1,0,0,0,16384,0,0,0,0.0,0.0,0.0,1.0,0.0,0.0,0.0,0.0,0.0,0.0,1000,1050,1100,1150,1200,1250,1300,1350,1300,1500,1500,1300,1300,1,1,1,1,1,1,1,1,0,0,0,0,stabilized_mix,0.0,0.0,0.0,0.0,0.0,0.0,0.0,0.0,0.0,0.0,0.0,0.0,0.0,0.0,0.0,0.0,0.0,0.0,0.0,0.0,0.0,0.0,0.0,0.0,0.0,0.0,0.0,0.0,0.0,0.0,0.0,0.0,0.0,0.0,0.0,0.0,0.0,0.0,0.0,0.0,0.10000000149011612,3316721448,1,0
827477062,2,292,2,0,4000,4,2,0,0,0,16384,0,0,0,0.0,0.0,0.0,1.0,0.0,0.0,0.0,0.0,1.0,1.0,1000,1050,1100,1150,1200,1250,1300,1350,1300,1500,1500,1300,1300,1,1,1,1,1,1,1,1,0,0,0,0,stabilized_mix,0.0,0.0,0.0,0.0,0.0,0.0,0.0,0.0,0.0,0.0,0.0,0.0,0.0,0.0,0.0,0.0,0.0,0.0,0.0,0.0,0.0,0.0,0.0,0.0,0.0,0.0,0.0,0.0,0.0,0.0,0.0,0.0,0.0,0.0,0.0,0.0,0.0,0.0,0.0,0.0,0.10000000149011612,1545923199,1,0
827477062,2,292,3,0,8000,8,3,0,0,0,16384,0,0,0,0.0,0.0,0.0,1.0,0.0,0.0,0.0,0.0,2.0,2.0,1000,1050,1100,1150,1200,1250,1300,1350,1300,1500,1500,1300,1300,1,1,1,1,1,1,1,1,0,0,0,0,stabilized_mix,0.0,0.0,0.0,0.0,0.0,0.0,0.0,0.0,0.0,0.0,0.0,0.0,0.0,0.0,0.0,0.0,0.0,0.0,0.0,0.0,0.0,0.0,0.0,0.0,0.0,0.0,0.0,0.0,0.0,0.0,0.0,0.0,0.0,0.0,0.0,0.0,0.0,0.0,0.0,0.0,0.10000000149011612,2132249169,1,0
827477062,2,292,4,0,12000,12,4,0,0,0,16384,0,0,0,0.0,0.0,0.0,1.0,0.0,0.0,0.0,0.0,3.0,3.0,1000,1050,1100,1150,1200,1250,1300,1350,1300,1500,1500,1300,1300,1,1,1,1,1,1,1,1,0,0,0,0,stabilized_mix,0.0,0.0,0.0,0.0,0.0,0.0,0.0,0.0,0.0,0.0,0.0,0.0,0.0,0.0,0.0,0.0,0.0,0.0,0.0,0.0,0.0,0.0,0.0,0.0,0.0,0.0,0.0,0.0,0.0,0.0,0.0,0.0,0.0,0.0,0.0,0.0,0.0,0.0,0.0,0.0,0.10000000149011612,1435296960,1,0
827477062,2,292,5,0,16000,16,5,0,0,0,16384,0,0,0,0.0,0.0,0.0,1.0,0.0,0.0,0.0,0.0,4.0,4.0,1000,1050,1100,1150,1200,1250,1300,1350,1300,1500,1500,1300,1300,1,1,1,1,1,1,1,1,0,0,0,0,stabilized_mix,0.0,0.0,0.0,0.0,0.0,0.0,0.0,0.0,0.0,0.0,0.0,0.0,0.0,0.0,0.0,0.0,0.0,0.0,0.0,0.0,0.0,0.0,0.0,0.0,0.0,0.0,0.0,0.0,0.0,0.0,0.0,0.0,0.0,0.0,0.0,0.0,0.0,0.0,0.0,0.0,0.10000000149011612,765308056,1,0
827477062,2,292,6,0,20000,20,6,0,0,0,16384,0,0,0,0.0,0.0,0.0,1.0,0.0,0.0,0.0,0.0,5.0,5.0,1000,1050,1100,1150,1200,1250,1300,1350,1300,1500,1500,1300,1300,1,1,1,1,1,1,1,1,0,0,0,0,stabilized_mix,0.0,0.0,0.0,0.0,0.0,0.0,0.0,0.0,0.0,0.0,0.0,0.0,0.0,0.0,0.0,0.0,0.0,0.0,0.0,0.0,0.0,0.0,0.0,0.0,0.0,0.0,0.0,0.0,0.0,0.0,0.0,0.0,0.0,0.0,0.0,0.0,0.0,0.0,0.0,0.0,0.10000000149011612,1403485669,1,0
827477062,2,292,7,0,24000,24,7,0,0,0,16384,0,0,0,0.0,0.0,0.0,1.0,0.0,0.0,0.0,0.0,6.0,6.0,1000,1050,1100,1150,1200,1250,1300,1350,1300,1500,1500,1300,1300,1,1,1,1,1,1,1,1,0,0,0,0,stabilized_mix,0.0,0.0,0.0,0.0,0.0,0.0,0.0,0.0,0.0,0.0,0.0,0.0,0.0,0.0,0.0,0.0,0.0,0.0,0.0,0.0,0.0,0.0,0.0,0.0,0.0,0.0,0.0,0.0,0.0,0.0,0.0,0.0,0.0,0.0,0.0,0.0,0.0,0.0,0.0,0.0,0.10000000149011612,1848674333,1,0
827477062,2,292,8,0,28000,28,8,0,0,0,16384,0,0,0,0.0,0.0,0.0,1.0,0.0,0.0,0.0,0.0,7.0,7.0,1000,1050,1100,1150,1200,1250,1300,1350,1300,1500,1500,1300,1300,1,1,1,1,1,1,1,1,0,0,0,0,stabilized_mix,0.0,0.0,0.0,0.0,0.0,0.0,0.0,0.0,0.0,0.0,0.0,0.0,0.0,0.0,0.0,0.0,0.0,0.0,0.0,0.0,0.0,0.0,0.0,0.0,0.0,0.0,0.0,0.0,0.0,0.0,0.0,0.0,0.0,0.0,0.0,0.0,0.0,0.0,0.0,0.0,0.10000000149011612,3396834079,1,0
827477062,2,292,9,0,32000,32,9,0,0,0,16384,0,0,0,0.0,0.0,0.0,1.0,0.0,0.0,0.0,0.0,8.0,8.0,1000,1050,1100,1150,1200,1250,1300,1350,1300,1500,1500,1300,1300,1,1,1,1,1,1,1,1,0,0,0,0,stabilized_mix,0.0,0.0,0.0,0.0,0.0,0.0,0.0,0.0,0.0,0.0,0.0,0.0,0.0,0.0,0.0,0.0,0.0,0.0,0.0,0.0,0.0,0.0,0.0,0.0,0.0,0.0,0.0,0.0,0.0,0.0,0.0,0.0,0.0,0.0,0.0,0.0,0.0,0.0,0.0,0.0,0.10000000149011612,1878031744,1,0
827477062,2,292,10,0,36000,36,10,0,0,0,16384,0,0,0,0.0,0.0,0.0,1.0,0.0,0.0,0.0,0.0,9.0,9.0,1000,1050,1100,1150,1200,1250,1300,1350,1300,1500,1500,1300,1300,1,1,1,1,1,1,1,1,0,0,0,0,stabilized_mix,0.0,0.0,0.0,0.0,0.0,0.0,0.0,0.0,0.0,0.0,0.0,0.0,0.0,0.0,0.0,0.0,0.0,0.0,0.0,0.0,0.0,0.0,0.0,0.0,0.0,0.0,0.0,0.0,0.0,0.0,0.0,0.0,0.0,0.0,0.0,0.0,0.0,0.0,0.0,0.0,0.10000000149011612,2086955147,1,0
827477062,2,292,11,0,40000,40,11,0,0,0,16384,0,0,0,0.0,0.0,0.0,1.0,0.0,0.0,0.0,0.0,10.0,10.0,1000,1050,1100,1150,1200,1250,1300,1350,1300,1500,1500,1300,1300,1,1,1,1,1,1,1,1,0,0,0,0,stabilized_mix,0.0,0.0,0.0,0.0,0.0,0.0,0.0,0.0,0.0,0.0,0.0,0.0,0.0,0.0,0.0,0.0,0.0,0.0,0.0,0.0,0.0,0.0,0.0,0.0,0.0,0.0,0.0,0.0,0.0,0.0,0.0,0.0,0.0,0.0,0.0,0.0,0.0,0.0,0.0,0.0,0.10000000149011612,4240085466,1,0
827477062,2,292,12,0,44000,44,12,0,0,0,16384,0,0,0,0.0,0.0,0.0,1.0,0.0,0.0,0.0,0.0,11.0,11.0,1000,1050,1100,1150,1200,1250,1300,1350,1300,1500,1500,1300,1300,1,1,1,1,1,1,1,1,0,0,0,0,stabilized_mix,0.0,0.0,0.0,0.0,0.0,0.0,0.0,0.0,0.0,0.0,0.0,0.0,0.0,0.0,0.0,0.0,0.0,0.0,0.0,0.0,0.0,0.0,0.0,0.0,0.0,0.0,0.0,0.0,0.0,0.0,0.0,0.0,0.0,0.0,0.0,0.0,0.0,0.0,0.0,0.0,0.10000000149011612,1565664404,1,0
827477062,2,292,13,0,48000,48,13,0,0,0,16384,0,0,0,0.0,0.0,0.0,1.0,0.0,0.0,0.0,0.0,12.0,12.0,1000,1050,1100,1150,1200,1250,1300,1350,1300,1500,1500,1300,1300,1,1,1,1,1,1,1,1,0,0,0,0,stabilized_mix,0.0,0.0,0.0,0.0,0.0,0.0,0.0,0.0,0.0,0.0,0.0,0.0,0.0,0.0,0.0,0.0,0.0,0.0,0.0,0.0,0.0,0.0,0.0,0.0,0.0,0.0,0.0,0.0,0.0,0.0,0.0,0.0,0.0,0.0,0.0,0.0,0.0,0.0,0.0,0.0,0.10000000149011612,2087675461,1,0
827477062,2,292,14,0,1000000,1000,14,0,0,0,16384,0,0,0,0.0,0.0,0.0,1.0,0.0,0.0,0.0,1.0,0.0,1.0,1000,1050,1100,1150,1200,1250,1300,1350,1300,1500,1500,1300,1300,1,1,1,1,1,1,1,1,0,0,0,0,stabilized_mix,0.0,0.0,0.0,0.0,0.0,0.0,0.0,0.0,0.0,0.0,0.0,0.0,0.0,0.0,0.0,0.0,0.0,0.0,0.0,0.0,0.0,0.0,0.0,0.0,0.0,0.0,0.0,0.0,0.0,0.0,0.0,0.0,0.0,0.0,0.0,0.0,0.0,0.0,0.0,0.0,0.10000000149011612,1706758018,2,1
827477062,2,292,15,0,1004000,1004,15,0,0,0,16384,0,0,0,0.0,0.0,0.0,1.0,0.0,0.0,0.0,1.0,1.0,2.0,1000,1050,1100,1150,1200,1250,1300,1350,1300,1500,1500,1300,1300,1,1,1,1,1,1,1,1,0,0,0,0,stabilized_mix,0.0,0.0,0.0,0.0,0.0,0.0,0.0,0.0,0.0,0.0,0.0,0.0,0.0,0.0,0.0,0.0,0.0,0.0,0.0,0.0,0.0,0.0,0.0,0.0,0.0,0.0,0.0,0.0,0.0,0.0,0.0,0.0,0.0,0.0,0.0,0.0,0.0,0.0,0.0,0.0,0.10000000149011612,1161364449,2,1
827477062,2,292,16,0,1008000,1008,16,0,0,0,16384,0,0,0,0.0,0.0,0.0,1.0,0.0,0.0,0.0,1.0,2.0,3.0,1000,1050,1100,1150,1200,1250,1300,1350,1300,1500,1500,1300,1300,1,1,1,1,1,1,1,1,0,0,0,0,stabilized_mix,0.0,0.0,0.0,0.0,0.0,0.0,0.0,0.0,0.0,0.0,0.0,0.0,0.0,0.0,0.0,0.0,0.0,0.0,0.0,0.0,0.0,0.0,0.0,0.0,0.0,0.0,0.0,0.0,0.0,0.0,0.0,0.0,0.0,0.0,0.0,0.0,0.0,0.0,0.0,0.0,0.10000000149011612,3643672462,2,1
827477062,2,292,17,0,1012000,1012,17,0,0,0,16384,0,0,0,0.0,0.0,0.0,1.0,0.0,0.0,0.0,1.0,3.0,4.0,1000,1050,1100,1150,1200,1250,1300,1350,1300,1500,1500,1300,1300,1,1,1,1,1,1,1,1,0,0,0,0,stabilized_mix,0.0,0.0,0.0,0.0,0.0,0.0,0.0,0.0,0.0,0.0,0.0,0.0,0.0,0.0,0.0,0.0,0.0,0.0,0.0,0.0,0.0,0.0,0.0,0.0,0.0,0.0,0.0,0.0,0.0,0.0,0.0,0.0,0.0,0.0,0.0,0.0,0.0,0.0,0.0,0.0,0.10000000149011612,1807336626,2,1
827477062,2,292,18,0,1016000,1016,18,0,0,0,16384,0,0,0,0.0,0.0,0.0,1.0,0.0,0.0,0.0,1.0,4.0,5.0,1000,1050,1100,1150,1200,1250,1300,1350,1300,1500,1500,1300,1300,1,1,1,1,1,1,1,1,0,0,0,0,stabilized_mix,0.0,0.0,0.0,0.0,0.0,0.0,0.0,0.0,0.0,0.0,0.0,0.0,0.0,0.0,0.0,0.0,0.0,0.0,0.0,0.0,0.0,0.0,0.0,0.0,0.0,0.0,0.0,0.0,0.0,0.0,0.0,0.0,0.0,0.0,0.0,0.0,0.0,0.0,0.0,0.0,0.10000000149011612,3242797794,2,1
827477062,2,292,19,0,1020000,1020,19,0,0,0,16384,0,0,0,0.0,0.0,0.0,1.0,0.0,0.0,0.0,1.0,5.0,6.0,1000,1050,1100,1150,1200,1250,1300,1350,1300,1500,1500,1300,1300,1,1,1,1,1,1,1,1,0,0,0,0,stabilized_mix,0.0,0.0,0.0,0.0,0.0,0.0,0.0,0.0,0.0,0.0,0.0,0.0,0.0,0.0,0.0,0.0,0.0,0.0,0.0,0.0,0.0,0.0,0.0,0.0,0.0,0.0,0.0,0.0,0.0,0.0,0.0,0.0,0.0,0.0,0.0,0.0,0.0,0.0,0.0,0.0,0.10000000149011612,2131801764,2,1
827477062,2,292,20,0,1024000,1024,20,0,0,0,16384,0,0,0,0.0,0.0,0.0,1.0,0.0,0.0,0.0,1.0,6.0,7.0,1000,1050,1100,1150,1200,1250,1300,1350,1300,1500,1500,1300,1300,1,1,1,1,1,1,1,1,0,0,0,0,stabilized_mix,0.0,0.0,0.0,0.0,0.0,0.0,0.0,0.0,0.0,0.0,0.0,0.0,0.0,0.0,0.0,0.0,0.0,0.0,0.0,0.0,0.0,0.0,0.0,0.0,0.0,0.0,0.0,0.0,0.0,0.0,0.0,0.0,0.0,0.0,0.0,0.0,0.0,0.0,0.0,0.0,0.10000000149011612,4136383244,2,1
827477062,2,292,21,0,1028000,1028,21,0,0,0,16384,0,0,0,0.0,0.0,0.0,1.0,0.0,0.0,0.0,1.0,7.0,8.0,1000,1050,1100,1150,1200,1250,1300,1350,1300,1500,1500,1300,1300,1,1,1,1,1,1,1,1,0,0,0,0,stabilized_mix,0.0,0.0,0.0,0.0,0.0,0.0,0.0,0.0,0.0,0.0,0.0,0.0,0.0,0.0,0.0,0.0,0.0,0.0,0.0,0.0,0.0,0.0,0.0,0.0,0.0,0.0,0.0,0.0,0.0,0.0,0.0,0.0,0.0,0.0,0.0,0.0,0.0,0.0,0.0,0.0,0.10000000149011612,313466910,2,1
827477062,2,292,22,0,1032000,1032,22,0,0,0,16384,0,0,0,0.0,0.0,0.0,1.0,0.0,0.0,0.0,1.0,8.0,9.0,1000,1050,1100,1150,1200,1250,1300,1350,1300,1500,1500,1300,1300,1,1,1,1,1,1,1,1,0,0,0,0,stabilized_mix,0.0,0.0,0.0,0.0,0.0,0.0,0.0,0.0,0.0,0.0,0.0,0.0,0.0,0.0,0.0,0.0,0.0,0.0,0.0,0.0,0.0,0.0,0.0,0.0,0.0,0.0,0.0,0.0,0.0,0.0,0.0,0.0,0.0,0.0,0.0,0.0,0.0,0.0,0.0,0.0,0.10000000149011612,4054608311,2,1
827477062,2,292,24,0,1040000,1040,24,0,0,0,16384,0,0,0,0.0,0.0,0.0,1.0,0.0,0.0,0.0,1.0,10.0,11.0,1000,1050,1100,1150,1200,1250,1300,1350,1300,1500,1500,1300,1300,1,1,1,1,1,1,1,1,0,0,0,0,stabilized_mix,0.0,0.0,0.0,0.0,0.0,0.0,0.0,0.0,0.0,0.0,0.0,0.0,0.0,0.0,0.0,0.0,0.0,0.0,0.0,0.0,0.0,0.0,0.0,0.0,0.0,0.0,0.0,0.0,0.0,0.0,0.0,0.0,0.0,0.0,0.0,0.0,0.0,0.0,0.0,0.0,0.10000000149011612,2191628654,2,1
827477062,2,292,25,0,1044000,1044,25,0,0,0,16384,0,0,0,0.0,0.0,0.0,1.0,0.0,0.0,0.0,1.0,11.0,12.0,1000,1050,1100,1150,1200,1250,1300,1350,1300,1500,1500,1300,1300,1,1,1,1,1,1,1,1,0,0,0,0,stabilized_mix,0.0,0.0,0.0,0.0,0.0,0.0,0.0,0.0,0.0,0.0,0.0,0.0,0.0,0.0,0.0,0.0,0.0,0.0,0.0,0.0,0.0,0.0,0.0,0.0,0.0,0.0,0.0,0.0,0.0,0.0,0.0,0.0,0.0,0.0,0.0,0.0,0.0,0.0,0.0,0.0,0.10000000149011612,722810858,2,1
827477062,2,292,26,0,1048000,1048,26,0,0,0,16384,0,0,0,0.0,0.0,0.0,1.0,0.0,0.0,0.0,1.0,12.0,13.0,1000,1050,1100,1150,1200,1250,1300,1350,1300,1500,1500,1300,1300,1,1,1,1,1,1,1,1,0,0,0,0,stabilized_mix,0.0,0.0,0.0,0.0,0.0,0.0,0.0,0.0,0.0,0.0,0.0,0.0,0.0,0.0,0.0,0.0,0.0,0.0,0.0,0.0,0.0,0.0,0.0,0.0,0.0,0.0,0.0,0.0,0.0,0.0,0.0,0.0,0.0,0.0,0.0,0.0,0.0,0.0,0.0,0.0,0.10000000149011612,1296644350,2,1
827477062,2,292,27,0,2000000,2000,27,0,0,0,16384,0,0,0,0.0,0.0,0.0,1.0,0.0,0.0,0.0,2.0,0.0,2.0,1000,1050,1100,1150,1200,1250,1300,1350,1300,1500,1500,1300,1300,1,1,1,1,1,1,1,1,0,0,0,0,stabilized_mix,0.0,0.0,0.0,0.0,0.0,0.0,0.0,0.0,0.0,0.0,0.0,0.0,0.0,0.0,0.0,0.0,0.0,0.0,0.0,0.0,0.0,0.0,0.0,0.0,0.0,0.0,0.0,0.0,0.0,0.0,0.0,0.0,0.0,0.0,0.0,0.0,0.0,0.0,0.0,0.0,0.10000000149011612,1040628043,3,2
827477062,2,292,28,0,2004000,2004,28,0,0,0,16384,0,0,0,0.0,0.0,0.0,1.0,0.0,0.0,0.0,2.0,1.0,3.0,1000,1050,1100,1150,1200,1250,1300,1350,1300,1500,1500,1300,1300,1,1,1,1,1,1,1,1,0,0,0,0,stabilized_mix,0.0,0.0,0.0,0.0,0.0,0.0,0.0,0.0,0.0,0.0,0.0,0.0,0.0,0.0,0.0,0.0,0.0,0.0,0.0,0.0,0.0,0.0,0.0,0.0,0.0,0.0,0.0,0.0,0.0,0.0,0.0,0.0,0.0,0.0,0.0,0.0,0.0,0.0,0.0,0.0,0.10000000149011612,3378280315,3,2
827477062,2,292,29,0,2008000,2008,29,0,0,0,16384,0,0,0,0.0,0.0,0.0,1.0,0.0,0.0,0.0,2.0,2.0,4.0,1000,1050,1100,1150,1200,1250,1300,1350,1300,1500,1500,1300,1300,1,1,1,1,1,1,1,1,0,0,0,0,stabilized_mix,0.0,0.0,0.0,0.0,0.0,0.0,0.0,0.0,0.0,0.0,0.0,0.0,0.0,0.0,0.0,0.0,0.0,0.0,0.0,0.0,0.0,0.0,0.0,0.0,0.0,0.0,0.0,0.0,0.0,0.0,0.0,0.0,0.0,0.0,0.0,0.0,0.0,0.0,0.0,0.0,0.10000000149011612,2474749917,3,2
827477062,2,292,30,0,2012000,2012,30,0,0,0,16384,0,0,0,0.0,0.0,0.0,1.0,0.0,0.0,0.0,2.0,3.0,5.0,1000,1050,1100,1150,1200,1250,1300,1350,1300,1500,1500,1300,1300,1,1,1,1,1,1,1,1,0,0,0,0,stabilized_mix,0.0,0.0,0.0,0.0,0.0,0.0,0.0,0.0,0.0,0.0,0.0,0.0,0.0,0.0,0.0,0.0,0.0,0.0,0.0,0.0,0.0,0.0,0.0,0.0,0.0,0.0,0.0,0.0,0.0,0.0,0.0,0.0,0.0,0.0,0.0,0.0,0.0,0.0,0.0,0.0,0.10000000149011612,1809432549,3,2
827477062,2,292,31,0,2016000,2016,31,0,0,0,16384,0,0,0,0.0,0.0,0.0,1.0,0.0,0.0,0.0,2.0,4.0,6.0,1000,1050,1100,1150,1200,1250,1300,1350,1300,1500,1500,1300,1300,1,1,1,1,1,1,1,1,0,0,0,0,stabilized_mix,0.0,0.0,0.0,0.0,0.0,0.0,0.0,0.0,0.0,0.0,0.0,0.0,0.0,0.0,0.0,0.0,0.0,0.0,0.0,0.0,0.0,0.0,0.0,0.0,0.0,0.0,0.0,0.0,0.0,0.0,0.0,0.0,0.0,0.0,0.0,0.0,0.0,0.0,0.0,0.0,0.10000000149011612,2232816658,3,2
827477062,2,292,32,0,2020000,2020,32,0,0,0,16384,0,0,0,0.0,0.0,0.0,1.0,0.0,0.0,0.0,2.0,5.0,7.0,1000,1050,1100,1150,1200,1250,1300,1350,1300,1500,1500,1300,1300,1,1,1,1,1,1,1,1,0,0,0,0,stabilized_mix,0.0,0.0,0.0,0.0,0.0,0.0,0.0,0.0,0.0,0.0,0.0,0.0,0.0,0.0,0.0,0.0,0.0,0.0,0.0,0.0,0.0,0.0,0.0,0.0,0.0,0.0,0.0,0.0,0.0,0.0,0.0,0.0,0.0,0.0,0.0,0.0,0.0,0.0,0.0,0.0,0.10000000149011612,3886812035,3,2
827477062,2,292,33,0,2024000,2024,33,0,0,0,16384,0,0,0,0.0,0.0,0.0,1.0,0.0,0.0,0.0,2.0,6.0,8.0,1000,1050,1100,1150,1200,1250,1300,1350,1300,1500,1500,1300,1300,1,1,1,1,1,1,1,1,0,0,0,0,stabilized_mix,0.0,0.0,0.0,0.0,0.0,0.0,0.0,0.0,0.0,0.0,0.0,0.0,0.0,0.0,0.0,0.0,0.0,0.0,0.0,0.0,0.0,0.0,0.0,0.0,0.0,0.0,0.0,0.0,0.0,0.0,0.0,0.0,0.0,0.0,0.0,0.0,0.0,0.0,0.0,0.0,0.10000000149011612,839749894,3,2
827477062,2,292,34,0,2028000,2028,34,0,0,0,16384,0,0,0,0.0,0.0,0.0,1.0,0.0,0.0,0.0,2.0,7.0,9.0,1000,1050,1100,1150,1200,1250,1300,1350,1300,1500,1500,1300,1300,1,1,1,1,1,1,1,1,0,0,0,0,stabilized_mix,0.0,0.0,0.0,0.0,0.0,0.0,0.0,0.0,0.0,0.0,0.0,0.0,0.0,0.0,0.0,0.0,0.0,0.0,0.0,0.0,0.0,0.0,0.0,0.0,0.0,0.0,0.0,0.0,0.0,0.0,0.0,0.0,0.0,0.0,0.0,0.0,0.0,0.0,0.0,0.0,0.10000000149011612,761462517,3,2
827477062,2,292,35,0,2032000,2032,35,0,0,0,16384,0,0,0,0.0,0.0,0.0,1.0,0.0,0.0,0.0,2.0,8.0,10.0,1000,1050,1100,1150,1200,1250,1300,1350,1300,1500,1500,1300,1300,1,1,1,1,1,1,1,1,0,0,0,0,stabilized_mix,0.0,0.0,0.0,0.0,0.0,0.0,0.0,0.0,0.0,0.0,0.0,0.0,0.0,0.0,0.0,0.0,0.0,0.0,0.0,0.0,0.0,0.0,0.0,0.0,0.0,0.0,0.0,0.0,0.0,0.0,0.0,0.0,0.0,0.0,0.0,0.0,0.0,0.0,0.0,0.0,0.10000000149011612,1876260399,3,2
827477062,2,292,36,0,2036000,2036,36,0,0,0,16384,0,0,0,0.0,0.0,0.0,1.0,0.0,0.0,0.0,2.0,9.0,11.0,1000,1050,1100,1150,1200,1250,1300,1350,1300,1500,1500,1300,1300,1,1,1,1,1,1,1,1,0,0,0,0,stabilized_mix,0.0,0.0,0.0,0.0,0.0,0.0,0.0,0.0,0.0,0.0,0.0,0.0,0.0,0.0,0.0,0.0,0.0,0.0,0.0,0.0,0.0,0.0,0.0,0.0,0.0,0.0,0.0,0.0,0.0,0.0,0.0,0.0,0.0,0.0,0.0,0.0,0.0,0.0,0.0,0.0,0.10000000149011612,4275373834,3,2
827477062,2,292,37,0,2040000,2040,37,0,0,0,16384,0,0,0,0.0,0.0,0.0,1.0,0.0,0.0,0.0,2.0,10.0,12.0,1000,1050,1100,1150,1200,1250,1300,1350,1300,1500,1500,1300,1300,1,1,1,1,1,1,1,1,0,0,0,0,stabilized_mix,0.0,0.0,0.0,0.0,0.0,0.0,0.0,0.0,0.0,0.0,0.0,0.0,0.0,0.0,0.0,0.0,0.0,0.0,0.0,0.0,0.0,0.0,0.0,0.0,0.0,0.0,0.0,0.0,0.0,0.0,0.0,0.0,0.0,0.0,0.0,0.0,0.0,0.0,0.0,0.0,0.10000000149011612,205288319,3,2
827477062,2,292,38,0,2044000,2044,38,0,0,0,16384,0,0,0,0.0,0.0,0.0,1.0,0.0,0.0,0.0,2.0,11.0,13.0,1000,1050,1100,1150,1200,1250,1300,1350,1300,1500,1500,1300,1300,1,1,1,1,1,1,1,1,0,0,0,0,stabilized_mix,0.0,0.0,0.0,0.0,0.0,0.0,0.0,0.0,0.0,0.0,0.0,0.0,0.0,0.0,0.0,0.0,0.0,0.0,0.0,0.0,0.0,0.0,0.0,0.0,0.0,0.0,0.0,0.0,0.0,0.0,0.0,0.0,0.0,0.0,0.0,0.0,0.0,0.0,0.0,0.0,0.10000000149011612,1440310973,3,2
827477062,2,292,39,0,2048000,2048,39,0,0,0,16384,0,0,0,0.0,0.0,0.0,1.0,0.0,0.0,0.0,2.0,12.0,14.0,1000,1050,1100,1150,1200,1250,1300,1350,1300,1500,1500,1300,1300,1,1,1,1,1,1,1,1,0,0,0,0,stabilized_mix,0.0,0.0,0.0,0.0,0.0,0.0,0.0,0.0,0.0,0.0,0.0,0.0,0.0,0.0,0.0,0.0,0.0,0.0,0.0,0.0,0.0,0.0,0.0,0.0,0.0,0.0,0.0,0.0,0.0,0.0,0.0,0.0,0.0,0.0,0.0,0.0,0.0,0.0,0.0,0.0,0.10000000149011612,3726760115,3,2
827477062,2,292,40,0,3000000,3000,40,0,0,0,16384,0,0,0,0.0,0.0,0.0,1.0,0.0,0.0,0.0,3.0,0.0,3.0,1000,1050,1100,1150,1200,1250,1300,1350,1300,1500,1500,1300,1300,1,1,1,1,1,1,1,1,0,0,0,0,stabilized_mix,0.0,0.0,0.0,0.0,0.0,0.0,0.0,0.0,0.0,0.0,0.0,0.0,0.0,0.0,0.0,0.0,0.0,0.0,0.0,0.0,0.0,0.0,0.0,0.0,0.0,0.0,0.0,0.0,0.0,0.0,0.0,0.0,0.0,0.0,0.0,0.0,0.0,0.0,0.0,0.0,0.10000000149011612,1923159506,4,3
827477062,2,292,41,0,3004000,3004,41,0,0,0,16384,0,0,0,0.0,0.0,0.0,1.0,0.0,0.0,0.0,3.0,1.0,4.0,1000,1050,1100,1150,1200,1250,1300,1350,1300,1500,1500,1300,1300,1,1,1,1,1,1,1,1,0,0,0,0,stabilized_mix,0.0,0.0,0.0,0.0,0.0,0.0,0.0,0.0,0.0,0.0,0.0,0.0,0.0,0.0,0.0,0.0,0.0,0.0,0.0,0.0,0.0,0.0,0.0,0.0,0.0,0.0,0.0,0.0,0.0,0.0,0.0,0.0,0.0,0.0,0.0,0.0,0.0,0.0,0.0,0.0,0.10000000149011612,3219379647,4,3
827477062,2,292,42,0,3008000,3008,42,0,0,0,16384,0,0,0,0.0,0.0,0.0,1.0,0.0,0.0,0.0,3.0,2.0,5.0,1000,1050,1100,1150,1200,1250,1300,1350,1300,1500,1500,1300,1300,1,1,1,1,1,1,1,1,0,0,0,0,stabilized_mix,0.0,0.0,0.0,0.0,0.0,0.0,0.0,0.0,0.0,0.0,0.0,0.0,0.0,0.0,0.0,0.0,0.0,0.0,0.0,0.0,0.0,0.0,0.0,0.0,0.0,0.0,0.0,0.0,0.0,0.0,0.0,0.0,0.0,0.0,0.0,0.0,0.0,0.0,0.0,0.0,0.10000000149011612,2826558120,4,3
827477062,2,292,43,0,3012000,3012,43,0,0,0,16384,0,0,0,0.0,0.0,0.0,1.0,0.0,0.0,0.0,3.0,3.0,6.0,1000,1050,1100,1150,1200,1250,1300,1350,1300,1500,1500,1300,1300,1,1,1,1,1,1,1,1,0,0,0,0,stabilized_mix,0.0,0.0,0.0,0.0,0.0,0.0,0.0,0.0,0.0,0.0,0.0,0.0,0.0,0.0,0.0,0.0,0.0,0.0,0.0,0.0,0.0,0.0,0.0,0.0,0.0,0.0,0.0,0.0,0.0,0.0,0.0,0.0,0.0,0.0,0.0,0.0,0.0,0.0,0.0,0.0,0.10000000149011612,2903401978,4,3
827477062,2,292,44,0,3016000,3016,44,0,0,0,16384,0,0,0,0.0,0.0,0.0,1.0,0.0,0.0,0.0,3.0,4.0,7.0,1000,1050,1100,1150,1200,1250,1300,1350,1300,1500,1500,1300,1300,1,1,1,1,1,1,1,1,0,0,0,0,stabilized_mix,0.0,0.0,0.0,0.0,0.0,0.0,0.0,0.0,0.0,0.0,0.0,0.0,0.0,0.0,0.0,0.0,0.0,0.0,0.0,0.0,0.0,0.0,0.0,0.0,0.0,0.0,0.0,0.0,0.0,0.0,0.0,0.0,0.0,0.0,0.0,0.0,0.0,0.0,0.0,0.0,0.10000000149011612,3151167344,4,3
827477062,2,292,45,0,3020000,3020,45,0,0,0,16384,0,0,0,0.0,0.0,0.0,1.0,0.0,0.0,0.0,3.0,5.0,8.0,1000,1050,1100,1150,1200,1250,1300,1350,1300,1500,1500,1300,1300,1,1,1,1,1,1,1,1,0,0,0,0,stabilized_mix,0.0,0.0,0.0,0.0,0.0,0.0,0.0,0.0,0.0,0.0,0.0,0.0,0.0,0.0,0.0,0.0,0.0,0.0,0.0,0.0,0.0,0.0,0.0,0.0,0.0,0.0,0.0,0.0,0.0,0.0,0.0,0.0,0.0,0.0,0.0,0.0,0.0,0.0,0.0,0.0,0.10000000149011612,3949928278,4,3
827477062,2,292,46,0,3024000,3024,46,0,0,0,16384,0,0,0,0.0,0.0,0.0,1.0,0.0,0.0,0.0,3.0,6.0,9.0,1000,1050,1100,1150,1200,1250,1300,1350,1300,1500,1500,1300,1300,1,1,1,1,1,1,1,1,0,0,0,0,stabilized_mix,0.0,0.0,0.0,0.0,0.0,0.0,0.0,0.0,0.0,0.0,0.0,0.0,0.0,0.0,0.0,0.0,0.0,0.0,0.0,0.0,0.0,0.0,0.0,0.0,0.0,0.0,0.0,0.0,0.0,0.0,0.0,0.0,0.0,0.0,0.0,0.0,0.0,0.0,0.0,0.0,0.10000000149011612,1681416053,4,3
827477062,2,292,47,0,3028000,3028,47,0,0,0,16384,0,0,0,0.0,0.0,0.0,1.0,0.0,0.0,0.0,3.0,7.0,10.0,1000,1050,1100,1150,1200,1250,1300,1350,1300,1500,1500,1300,1300,1,1,1,1,1,1,1,1,0,0,0,0,stabilized_mix,0.0,0.0,0.0,0.0,0.0,0.0,0.0,0.0,0.0,0.0,0.0,0.0,0.0,0.0,0.0,0.0,0.0,0.0,0.0,0.0,0.0,0.0,0.0,0.0,0.0,0.0,0.0,0.0,0.0,0.0,0.0,0.0,0.0,0.0,0.0,0.0,0.0,0.0,0.0,0.0,0.10000000149011612,1045046866,4,3
827477062,2,292,48,0,3032000,3032,48,0,0,0,16384,0,0,0,0.0,0.0,0.0,1.0,0.0,0.0,0.0,3.0,8.0,11.0,1000,1050,1100,1150,1200,1250,1300,1350,1300,1500,1500,1300,1300,1,1,1,1,1,1,1,1,0,0,0,0,stabilized_mix,0.0,0.0,0.0,0.0,0.0,0.0,0.0,0.0,0.0,0.0,0.0,0.0,0.0,0.0,0.0,0.0,0.0,0.0,0.0,0.0,0.0,0.0,0.0,0.0,0.0,0.0,0.0,0.0,0.0,0.0,0.0,0.0,0.0,0.0,0.0,0.0,0.0,0.0,0.0,0.0,0.10000000149011612,2729180913,4,3
827477062,2,292,49,0,3036000,3036,49,0,0,0,16384,0,0,0,0.0,0.0,0.0,1.0,0.0,0.0,0.0,3.0,9.0,12.0,1000,1050,1100,1150,1200,1250,1300,1350,1300,1500,1500,1300,1300,1,1,1,1,1,1,1,1,0,0,0,0,stabilized_mix,0.0,0.0,0.0,0.0,0.0,0.0,0.0,0.0,0.0,0.0,0.0,0.0,0.0,0.0,0.0,0.0,0.0,0.0,0.0,0.0,0.0,0.0,0.0,0.0,0.0,0.0,0.0,0.0,0.0,0.0,0.0,0.0,0.0,0.0,0.0,0.0,0.0,0.0,0.0,0.0,0.10000000149011612,3400950750,4,3
827477062,2,292,50,0,3040000,3040,50,0,0,0,16384,0,0,0,0.0,0.0,0.0,1.0,0.0,0.0,0.0,3.0,10.0,13.0,1000,1050,1100,1150,1200,1250,1300,1350,1300,1500,1500,1300,1300,1,1,1,1,1,1,1,1,0,0,0,0,stabilized_mix,0.0,0.0,0.0,0.0,0.0,0.0,0.0,0.0,0.0,0.0,0.0,0.0,0.0,0.0,0.0,0.0,0.0,0.0,0.0,0.0,0.0,0.0,0.0,0.0,0.0,0.0,0.0,0.0,0.0,0.0,0.0,0.0,0.0,0.0,0.0,0.0,0.0,0.0,0.0,0.0,0.10000000149011612,2755069768,4,3
827477062,2,292,51,0,3044000,3044,51,0,0,0,16384,0,0,0,0.0,0.0,0.0,1.0,0.0,0.0,0.0,3.0,11.0,14.0,1000,1050,1100,1150,1200,1250,1300,1350,1300,1500,1500,1300,1300,1,1,1,1,1,1,1,1,0,0,0,0,stabilized_mix,0.0,0.0,0.0,0.0,0.0,0.0,0.0,0.0,0.0,0.0,0.0,0.0,0.0,0.0,0.0,0.0,0.0,0.0,0.0,0.0,0.0,0.0,0.0,0.0,0.0,0.0,0.0,0.0,0.0,0.0,0.0,0.0,0.0,0.0,0.0,0.0,0.0,0.0,0.0,0.0,0.10000000149011612,2142512360,4,3
827477062,2,292,52,0,3048000,3048,52,0,0,0,16384,0,0,0,0.0,0.0,0.0,1.0,0.0,0.0,0.0,3.0,12.0,15.0,1000,1050,1100,1150,1200,1250,1300,1350,1300,1500,1500,1300,1300,1,1,1,1,1,1,1,1,0,0,0,0,stabilized_mix,0.0,0.0,0.0,0.0,0.0,0.0,0.0,0.0,0.0,0.0,0.0,0.0,0.0,0.0,0.0,0.0,0.0,0.0,0.0,0.0,0.0,0.0,0.0,0.0,0.0,0.0,0.0,0.0,0.0,0.0,0.0,0.0,0.0,0.0,0.0,0.0,0.0,0.0,0.0,0.0,0.10000000149011612,1543991140,4,3
827477062,2,292,53,0,4000000,4000,53,0,0,0,16384,0,0,0,0.0,0.0,0.0,1.0,0.0,0.0,0.0,4.0,0.0,4.0,1000,1050,1100,1150,1200,1250,1300,1350,1300,1500,1500,1300,1300,1,1,1,1,1,1,1,1,0,0,0,0,stabilized_mix,0.0,0.0,0.0,0.0,0.0,0.0,0.0,0.0,0.0,0.0,0.0,0.0,0.0,0.0,0.0,0.0,0.0,0.0,0.0,0.0,0.0,0.0,0.0,0.0,0.0,0.0,0.0,0.0,0.0,0.0,0.0,0.0,0.0,0.0,0.0,0.0,0.0,0.0,0.0,0.0,0.10000000149011612,3769741315,5,4
827477062,2,292,54,0,4004000,4004,54,0,0,0,16384,0,0,0,0.0,0.0,0.0,1.0,0.0,0.0,0.0,4.0,1.0,5.0,1000,1050,1100,1150,1200,1250,1300,1350,1300,1500,1500,1300,1300,1,1,1,1,1,1,1,1,0,0,0,0,stabilized_mix,0.0,0.0,0.0,0.0,0.0,0.0,0.0,0.0,0.0,0.0,0.0,0.0,0.0,0.0,0.0,0.0,0.0,0.0,0.0,0.0,0.0,0.0,0.0,0.0,0.0,0.0,0.0,0.0,0.0,0.0,0.0,0.0,0.0,0.0,0.0,0.0,0.0,0.0,0.0,0.0,0.10000000149011612,75576113,5,4
827477062,2,292,55,0,4008000,4008,55,0,0,0,16384,0,0,0,0.0,0.0,0.0,1.0,0.0,0.0,0.0,4.0,2.0,6.0,1000,1050,1100,1150,1200,1250,1300,1350,1300,1500,1500,1300,1300,1,1,1,1,1,1,1,1,0,0,0,0,stabilized_mix,0.0,0.0,0.0,0.0,0.0,0.0,0.0,0.0,0.0,0.0,0.0,0.0,0.0,0.0,0.0,0.0,0.0,0.0,0.0,0.0,0.0,0.0,0.0,0.0,0.0,0.0,0.0,0.0,0.0,0.0,0.0,0.0,0.0,0.0,0.0,0.0,0.0,0.0,0.0,0.0,0.10000000149011612,3158036692,5,4
827477062,2,292,56,0,4012000,4012,56,0,0,0,16384,0,0,0,0.0,0.0,0.0,1.0,0.0,0.0,0.0,4.0,3.0,7.0,1000,1050,1100,1150,1200,1250,1300,1350,1300,1500,1500,1300,1300,1,1,1,1,1,1,1,1,0,0,0,0,stabilized_mix,0.0,0.0,0.0,0.0,0.0,0.0,0.0,0.0,0.0,0.0,0.0,0.0,0.0,0.0,0.0,0.0,0.0,0.0,0.0,0.0,0.0,0.0,0.0,0.0,0.0,0.0,0.0,0.0,0.0,0.0,0.0,0.0,0.0,0.0,0.0,0.0,0.0,0.0,0.0,0.0,0.10000000149011612,2624721438,5,4
827477062,2,292,57,0,4016000,4016,57,0,0,0,16384,0,0,0,0.0,0.0,0.0,1.0,0.0,0.0,0.0,4.0,4.0,8.0,1000,1050,1100,1150,1200,1250,1300,1350,1300,1500,1500,1300,1300,1,1,1,1,1,1,1,1,0,0,0,0,stabilized_mix,0.0,0.0,0.0,0.0,0.0,0.0,0.0,0.0,0.0,0.0,0.0,0.0,0.0,0.0,0.0,0.0,0.0,0.0,0.0,0.0,0.0,0.0,0.0,0.0,0.0,0.0,0.0,0.0,0.0,0.0,0.0,0.0,0.0,0.0,0.0,0.0,0.0,0.0,0.0,0.0,0.10000000149011612,3818268738,5,4
827477062,2,292,58,0,4020000,4020,58,0,0,0,16384,0,0,0,0.0,0.0,0.0,1.0,0.0,0.0,0.0,4.0,5.0,9.0,1000,1050,1100,1150,1200,1250,1300,1350,1300,1500,1500,1300,1300,1,1,1,1,1,1,1,1,0,0,0,0,stabilized_mix,0.0,0.0,0.0,0.0,0.0,0.0,0.0,0.0,0.0,0.0,0.0,0.0,0.0,0.0,0.0,0.0,0.0,0.0,0.0,0.0,0.0,0.0,0.0,0.0,0.0,0.0,0.0,0.0,0.0,0.0,0.0,0.0,0.0,0.0,0.0,0.0,0.0,0.0,0.0,0.0,0.10000000149011612,1480587100,5,4
827477062,2,292,59,0,4024000,4024,59,0,0,0,16384,0,0,0,0.0,0.0,0.0,1.0,0.0,0.0,0.0,4.0,6.0,10.0,1000,1050,1100,1150,1200,1250,1300,1350,1300,1500,1500,1300,1300,1,1,1,1,1,1,1,1,0,0,0,0,stabilized_mix,0.0,0.0,0.0,0.0,0.0,0.0,0.0,0.0,0.0,0.0,0.0,0.0,0.0,0.0,0.0,0.0,0.0,0.0,0.0,0.0,0.0,0.0,0.0,0.0,0.0,0.0,0.0,0.0,0.0,0.0,0.0,0.0,0.0,0.0,0.0,0.0,0.0,0.0,0.0,0.0,0.10000000149011612,2270295256,5,4
827477062,2,292,60,0,4028000,4028,60,0,0,0,16384,0,0,0,0.0,0.0,0.0,1.0,0.0,0.0,0.0,4.0,7.0,11.0,1000,1050,1100,1150,1200,1250,1300,1350,1300,1500,1500,1300,1300,1,1,1,1,1,1,1,1,0,0,0,0,stabilized_mix,0.0,0.0,0.0,0.0,0.0,0.0,0.0,0.0,0.0,0.0,0.0,0.0,0.0,0.0,0.0,0.0,0.0,0.0,0.0,0.0,0.0,0.0,0.0,0.0,0.0,0.0,0.0,0.0,0.0,0.0,0.0,0.0,0.0,0.0,0.0,0.0,0.0,0.0,0.0,0.0,0.10000000149011612,4095561505,5,4
827477062,2,292,61,0,4032000,4032,61,0,0,0,16384,0,0,0,0.0,0.0,0.0,1.0,0.0,0.0,0.0,4.0,8.0,12.0,1000,1050,1100,1150,1200,1250,1300,1350,1300,1500,1500,1300,1300,1,1,1,1,1,1,1,1,0,0,0,0,stabilized_mix,0.0,0.0,0.0,0.0,0.0,0.0,0.0,0.0,0.0,0.0,0.0,0.0,0.0,0.0,0.0,0.0,0.0,0.0,0.0,0.0,0.0,0.0,0.0,0.0,0.0,0.0,0.0,0.0,0.0,0.0,0.0,0.0,0.0,0.0,0.0,0.0,0.0,0.0,0.0,0.0,0.10000000149011612,4192464258,5,4
827477062,2,292,62,0,4036000,4036,62,0,0,0,16384,0,0,0,0.0,0.0,0.0,1.0,0.0,0.0,0.0,4.0,9.0,13.0,1000,1050,1100,1150,1200,1250,1300,1350,1300,1500,1500,1300,1300,1,1,1,1,1,1,1,1,0,0,0,0,stabilized_mix,0.0,0.0,0.0,0.0,0.0,0.0,0.0,0.0,0.0,0.0,0.0,0.0,0.0,0.0,0.0,0.0,0.0,0.0,0.0,0.0,0.0,0.0,0.0,0.0,0.0,0.0,0.0,0.0,0.0,0.0,0.0,0.0,0.0,0.0,0.0,0.0,0.0,0.0,0.0,0.0,0.10000000149011612,79710381,5,4
827477062,2,292,63,0,4040000,4040,63,0,0,0,16384,0,0,0,0.0,0.0,0.0,1.0,0.0,0.0,0.0,4.0,10.0,14.0,1000,1050,1100,1150,1200,1250,1300,1350,1300,1500,1500,1300,1300,1,1,1,1,1,1,1,1,0,0,0,0,stabilized_mix,0.0,0.0,0.0,0.0,0.0,0.0,0.0,0.0,0.0,0.0,0.0,0.0,0.0,0.0,0.0,0.0,0.0,0.0,0.0,0.0,0.0,0.0,0.0,0.0,0.0,0.0,0.0,0.0,0.0,0.0,0.0,0.0,0.0,0.0,0.0,0.0,0.0,0.0,0.0,0.0,0.10000000149011612,1169654359,5,4
827477062,2,292,64,0,4044000,4044,64,0,0,0,16384,0,0,0,0.0,0.0,0.0,1.0,0.0,0.0,0.0,4.0,11.0,15.0,1000,1050,1100,1150,1200,1250,1300,1350,1300,1500,1500,1300,1300,1,1,1,1,1,1,1,1,0,0,0,0,stabilized_mix,0.0,0.0,0.0,0.0,0.0,0.0,0.0,0.0,0.0,0.0,0.0,0.0,0.0,0.0,0.0,0.0,0.0,0.0,0.0,0.0,0.0,0.0,0.0,0.0,0.0,0.0,0.0,0.0,0.0,0.0,0.0,0.0,0.0,0.0,0.0,0.0,0.0,0.0,0.0,0.0,0.10000000149011612,2702540158,5,4
827477062,2,292,65,0,4048000,4048,65,0,0,0,16384,0,0,0,0.0,0.0,0.0,1.0,0.0,0.0,0.0,4.0,12.0,16.0,1000,1050,1100,1150,1200,1250,1300,1350,1300,1500,1500,1300,1300,1,1,1,1,1,1,1,1,0,0,0,0,stabilized_mix,0.0,0.0,0.0,0.0,0.0,0.0,0.0,0.0,0.0,0.0,0.0,0.0,0.0,0.0,0.0,0.0,0.0,0.0,0.0,0.0,0.0,0.0,0.0,0.0,0.0,0.0,0.0,0.0,0.0,0.0,0.0,0.0,0.0,0.0,0.0,0.0,0.0,0.0,0.0,0.0,0.10000000149011612,1653946106,5,4
827477062,2,292,66,0,5000000,5000,66,0,0,0,16384,0,0,0,0.0,0.0,0.0,1.0,0.0,0.0,0.0,5.0,0.0,5.0,1000,1050,1100,1150,1200,1250,1300,1350,1300,1500,1500,1300,1300,1,1,1,1,1,1,1,1,0,0,0,0,stabilized_mix,0.0,0.0,0.0,0.0,0.0,0.0,0.0,0.0,0.0,0.0,0.0,0.0,0.0,0.0,0.0,0.0,0.0,0.0,0.0,0.0,0.0,0.0,0.0,0.0,0.0,0.0,0.0,0.0,0.0,0.0,0.0,0.0,0.0,0.0,0.0,0.0,0.0,0.0,0.0,0.0,0.10000000149011612,3337591171,6,5
827477062,2,292,67,0,5004000,5004,67,0,0,0,16384,0,0,0,0.0,0.0,0.0,1.0,0.0,0.0,0.0,5.0,1.0,6.0,1000,1050,1100,1150,1200,1250,1300,1350,1300,1500,1500,1300,1300,1,1,1,1,1,1,1,1,0,0,0,0,stabilized_mix,0.0,0.0,0.0,0.0,0.0,0.0,0.0,0.0,0.0,0.0,0.0,0.0,0.0,0.0,0.0,0.0,0.0,0.0,0.0,0.0,0.0,0.0,0.0,0.0,0.0,0.0,0.0,0.0,0.0,0.0,0.0,0.0,0.0,0.0,0.0,0.0,0.0,0.0,0.0,0.0,0.10000000149011612,2067137846,6,5
827477062,2,292,68,0,5008000,5008,68,0,0,0,16384,0,0,0,0.0,0.0,0.0,1.0,0.0,0.0,0.0,5.0,2.0,7.0,1000,1050,1100,1150,1200,1250,1300,1350,1300,1500,1500,1300,1300,1,1,1,1,1,1,1,1,0,0,0,0,stabilized_mix,0.0,0.0,0.0,0.0,0.0,0.0,0.0,0.0,0.0,0.0,0.0,0.0,0.0,0.0,0.0,0.0,0.0,0.0,0.0,0.0,0.0,0.0,0.0,0.0,0.0,0.0,0.0,0.0,0.0,0.0,0.0,0.0,0.0,0.0,0.0,0.0,0.0,0.0,0.0,0.0,0.10000000149011612,2162157686,6,5
827477062,2,292,69,0,5012000,5012,69,0,0,0,16384,0,0,0,0.0,0.0,0.0,1.0,0.0,0.0,0.0,5.0,3.0,8.0,1000,1050,1100,1150,1200,1250,1300,1350,1300,1500,1500,1300,1300,1,1,1,1,1,1,1,1,0,0,0,0,stabilized_mix,0.0,0.0,0.0,0.0,0.0,0.0,0.0,0.0,0.0,0.0,0.0,0.0,0.0,0.0,0.0,0.0,0.0,0.0,0.0,0.0,0.0,0.0,0.0,0.0,0.0,0.0,0.0,0.0,0.0,0.0,0.0,0.0,0.0,0.0,0.0,0.0,0.0,0.0,0.0,0.0,0.10000000149011612,2889288690,6,5
827477062,2,292,70,0,5016000,5016,70,0,0,0,16384,0,0,0,0.0,0.0,0.0,1.0,0.0,0.0,0.0,5.0,4.0,9.0,1000,1050,1100,1150,1200,1250,1300,1350,1300,1500,1500,1300,1300,1,1,1,1,1,1,1,1,0,0,0,0,stabilized_mix,0.0,0.0,0.0,0.0,0.0,0.0,0.0,0.0,0.0,0.0,0.0,0.0,0.0,0.0,0.0,0.0,0.0,0.0,0.0,0.0,0.0,0.0,0.0,0.0,0.0,0.0,0.0,0.0,0.0,0.0,0.0,0.0,0.0,0.0,0.0,0.0,0.0,0.0,0.0,0.0,0.10000000149011612,2644875723,6,5
827477062,2,292,71,0,5020000,5020,71,0,0,0,16384,0,0,0,0.0,0.0,0.0,1.0,0.0,0.0,0.0,5.0,5.0,10.0,1000,1050,1100,1150,1200,1250,1300,1350,1300,1500,1500,1300,1300,1,1,1,1,1,1,1,1,0,0,0,0,stabilized_mix,0.0,0.0,0.0,0.0,0.0,0.0,0.0,0.0,0.0,0.0,0.0,0.0,0.0,0.0,0.0,0.0,0.0,0.0,0.0,0.0,0.0,0.0,0.0,0.0,0.0,0.0,0.0,0.0,0.0,0.0,0.0,0.0,0.0,0.0,0.0,0.0,0.0,0.0,0.0,0.0,0.10000000149011612,3352813804,6,5
827477062,2,292,72,0,5024000,5024,72,0,0,0,16384,0,0,0,0.0,0.0,0.0,1.0,0.0,0.0,0.0,5.0,6.0,11.0,1000,1050,1100,1150,1200,1250,1300,1350,1300,1500,1500,1300,1300,1,1,1,1,1,1,1,1,0,0,0,0,stabilized_mix,0.0,0.0,0.0,0.0,0.0,0.0,0.0,0.0,0.0,0.0,0.0,0.0,0.0,0.0,0.0,0.0,0.0,0.0,0.0,0.0,0.0,0.0,0.0,0.0,0.0,0.0,0.0,0.0,0.0,0.0,0.0,0.0,0.0,0.0,0.0,0.0,0.0,0.0,0.0,0.0,0.10000000149011612,3601626679,6,5
827477062,2,292,73,0,5028000,5028,73,0,0,0,16384,0,0,0,0.0,0.0,0.0,1.0,0.0,0.0,0.0,5.0,7.0,12.0,1000,1050,1100,1150,1200,1250,1300,1350,1300,1500,1500,1300,1300,1,1,1,1,1,1,1,1,0,0,0,0,stabilized_mix,0.0,0.0,0.0,0.0,0.0,0.0,0.0,0.0,0.0,0.0,0.0,0.0,0.0,0.0,0.0,0.0,0.0,0.0,0.0,0.0,0.0,0.0,0.0,0.0,0.0,0.0,0.0,0.0,0.0,0.0,0.0,0.0,0.0,0.0,0.0,0.0,0.0,0.0,0.0,0.0,0.10000000149011612,1061204383,6,5
827477062,2,292,74,0,5032000,5032,74,0,0,0,16384,0,0,0,0.0,0.0,0.0,1.0,0.0,0.0,0.0,5.0,8.0,13.0,1000,1050,1100,1150,1200,1250,1300,1350,1300,1500,1500,1300,1300,1,1,1,1,1,1,1,1,0,0,0,0,stabilized_mix,0.0,0.0,0.0,0.0,0.0,0.0,0.0,0.0,0.0,0.0,0.0,0.0,0.0,0.0,0.0,0.0,0.0,0.0,0.0,0.0,0.0,0.0,0.0,0.0,0.0,0.0,0.0,0.0,0.0,0.0,0.0,0.0,0.0,0.0,0.0,0.0,0.0,0.0,0.0,0.0,0.10000000149011612,1170844298,6,5
827477062,2,292,75,0,5036000,5036,75,0,0,0,16384,0,0,0,0.0,0.0,0.0,1.0,0.0,0.0,0.0,5.0,9.0,14.0,1000,1050,1100,1150,1200,1250,1300,1350,1300,1500,1500,1300,1300,1,1,1,1,1,1,1,1,0,0,0,0,stabilized_mix,0.0,0.0,0.0,0.0,0.0,0.0,0.0,0.0,0.0,0.0,0.0,0.0,0.0,0.0,0.0,0.0,0.0,0.0,0.0,0.0,0.0,0.0,0.0,0.0,0.0,0.0,0.0,0.0,0.0,0.0,0.0,0.0,0.0,0.0,0.0,0.0,0.0,0.0,0.0,0.0,0.10000000149011612,2813878507,6,5
827477062,2,292,76,0,5040000,5040,76,0,0,0,16384,0,0,0,0.0,0.0,0.0,1.0,0.0,0.0,0.0,5.0,10.0,15.0,1000,1050,1100,1150,1200,1250,1300,1350,1300,1500,1500,1300,1300,1,1,1,1,1,1,1,1,0,0,0,0,stabilized_mix,0.0,0.0,0.0,0.0,0.0,0.0,0.0,0.0,0.0,0.0,0.0,0.0,0.0,0.0,0.0,0.0,0.0,0.0,0.0,0.0,0.0,0.0,0.0,0.0,0.0,0.0,0.0,0.0,0.0,0.0,0.0,0.0,0.0,0.0,0.0,0.0,0.0,0.0,0.0,0.0,0.10000000149011612,497949962,6,5
827477062,2,292,77,0,5044000,5044,77,0,0,0,16384,0,0,0,0.0,0.0,0.0,1.0,0.0,0.0,0.0,5.0,11.0,16.0,1000,1050,1100,1150,1200,1250,1300,1350,1300,1500,1500,1300,1300,1,1,1,1,1,1,1,1,0,0,0,0,stabilized_mix,0.0,0.0,0.0,0.0,0.0,0.0,0.0,0.0,0.0,0.0,0.0,0.0,0.0,0.0,0.0,0.0,0.0,0.0,0.0,0.0,0.0,0.0,0.0,0.0,0.0,0.0,0.0,0.0,0.0,0.0,0.0,0.0,0.0,0.0,0.0,0.0,0.0,0.0,0.0,0.0,0.10000000149011612,243588044,6,5
827477062,2,292,78,0,5048000,5048,78,0,0,0,16384,0,0,0,0.0,0.0,0.0,1.0,0.0,0.0,0.0,5.0,12.0,17.0,1000,1050,1100,1150,1200,1250,1300,1350,1300,1500,1500,1300,1300,1,1,1,1,1,1,1,1,0,0,0,0,stabilized_mix,0.0,0.0,0.0,0.0,0.0,0.0,0.0,0.0,0.0,0.0,0.0,0.0,0.0,0.0,0.0,0.0,0.0,0.0,0.0,0.0,0.0,0.0,0.0,0.0,0.0,0.0,0.0,0.0,0.0,0.0,0.0,0.0,0.0,0.0,0.0,0.0,0.0,0.0,0.0,0.0,0.10000000149011612,4264020910,6,5
827477062,2,292,79,0,6000000,6000,79,0,0,0,16384,0,0,0,0.0,0.0,0.0,1.0,0.0,0.0,0.0,6.0,0.0,6.0,1000,1050,1100,1150,1200,1250,1300,1350,1300,1500,1500,1300,1300,1,1,1,1,1,1,1,1,0,0,0,0,stabilized_mix,0.0,0.0,0.0,0.0,0.0,0.0,0.0,0.0,0.0,0.0,0.0,0.0,0.0,0.0,0.0,0.0,0.0,0.0,0.0,0.0,0.0,0.0,0.0,0.0,0.0,0.0,0.0,0.0,0.0,0.0,0.0,0.0,0.0,0.0,0.0,0.0,0.0,0.0,0.0,0.0,0.10000000149011612,4209770320,7,6
827477062,2,292,80,0,6004000,6004,80,0,0,0,16384,0,0,0,0.0,0.0,0.0,1.0,0.0,0.0,0.0,6.0,1.0,7.0,1000,1050,1100,1150,1200,1250,1300,1350,1300,1500,1500,1300,1300,1,1,1,1,1,1,1,1,0,0,0,0,stabilized_mix,0.0,0.0,0.0,0.0,0.0,0.0,0.0,0.0,0.0,0.0,0.0,0.0,0.0,0.0,0.0,0.0,0.0,0.0,0.0,0.0,0.0,0.0,0.0,0.0,0.0,0.0,0.0,0.0,0.0,0.0,0.0,0.0,0.0,0.0,0.0,0.0,0.0,0.0,0.0,0.0,0.10000000149011612,1783617615,7,6
827477062,2,292,81,0,6008000,6008,81,0,0,0,16384,0,0,0,0.0,0.0,0.0,1.0,0.0,0.0,0.0,6.0,2.0,8.0,1000,1050,1100,1150,1200,1250,1300,1350,1300,1500,1500,1300,1300,1,1,1,1,1,1,1,1,0,0,0,0,stabilized_mix,0.0,0.0,0.0,0.0,0.0,0.0,0.0,0.0,0.0,0.0,0.0,0.0,0.0,0.0,0.0,0.0,0.0,0.0,0.0,0.0,0.0,0.0,0.0,0.0,0.0,0.0,0.0,0.0,0.0,0.0,0.0,0.0,0.0,0.0,0.0,0.0,0.0,0.0,0.0,0.0,0.10000000149011612,1007765450,7,6
827477062,2,292,82,0,6012000,6012,82,0,0,0,16384,0,0,0,0.0,0.0,0.0,1.0,0.0,0.0,0.0,6.0,3.0,9.0,1000,1050,1100,1150,1200,1250,1300,1350,1300,1500,1500,1300,1300,1,1,1,1,1,1,1,1,0,0,0,0,stabilized_mix,0.0,0.0,0.0,0.0,0.0,0.0,0.0,0.0,0.0,0.0,0.0,0.0,0.0,0.0,0.0,0.0,0.0,0.0,0.0,0.0,0.0,0.0,0.0,0.0,0.0,0.0,0.0,0.0,0.0,0.0,0.0,0.0,0.0,0.0,0.0,0.0,0.0,0.0,0.0,0.0,0.10000000149011612,2555382573,7,6
827477062,2,292,83,0,6016000,6016,83,0,0,0,16384,0,0,0,0.0,0.0,0.0,1.0,0.0,0.0,0.0,6.0,4.0,10.0,1000,1050,1100,1150,1200,1250,1300,1350,1300,1500,1500,1300,1300,1,1,1,1,1,1,1,1,0,0,0,0,stabilized_mix,0.0,0.0,0.0,0.0,0.0,0.0,0.0,0.0,0.0,0.0,0.0,0.0,0.0,0.0,0.0,0.0,0.0,0.0,0.0,0.0,0.0,0.0,0.0,0.0,0.0,0.0,0.0,0.0,0.0,0.0,0.0,0.0,0.0,0.0,0.0,0.0,0.0,0.0,0.0,0.0,0.10000000149011612,3684255963,7,6
827477062,2,292,84,0,6020000,6020,84,0,0,0,16384,0,0,0,0.0,0.0,0.0,1.0,0.0,0.0,0.0,6.0,5.0,11.0,1000,1050,1100,1150,1200,1250,1300,1350,1300,1500,1500,1300,1300,1,1,1,1,1,1,1,1,0,0,0,0,stabilized_mix,0.0,0.0,0.0,0.0,0.0,0.0,0.0,0.0,0.0,0.0,0.0,0.0,0.0,0.0,0.0,0.0,0.0,0.0,0.0,0.0,0.0,0.0,0.0,0.0,0.0,0.0,0.0,0.0,0.0,0.0,0.0,0.0,0.0,0.0,0.0,0.0,0.0,0.0,0.0,0.0,0.10000000149011612,1502872802,7,6
827477062,2,292,85,0,6024000,6024,85,0,0,0,16384,0,0,0,0.0,0.0,0.0,1.0,0.0,0.0,0.0,6.0,6.0,12.0,1000,1050,1100,1150,1200,1250,1300,1350,1300,1500,1500,1300,1300,1,1,1,1,1,1,1,1,0,0,0,0,stabilized_mix,0.0,0.0,0.0,0.0,0.0,0.0,0.0,0.0,0.0,0.0,0.0,0.0,0.0,0.0,0.0,0.0,0.0,0.0,0.0,0.0,0.0,0.0,0.0,0.0,0.0,0.0,0.0,0.0,0.0,0.0,0.0,0.0,0.0,0.0,0.0,0.0,0.0,0.0,0.0,0.0,0.10000000149011612,895793641,7,6
827477062,2,292,86,0,6028000,6028,86,0,0,0,16384,0,0,0,0.0,0.0,0.0,1.0,0.0,0.0,0.0,6.0,7.0,13.0,1000,1050,1100,1150,1200,1250,1300,1350,1300,1500,1500,1300,1300,1,1,1,1,1,1,1,1,0,0,0,0,stabilized_mix,0.0,0.0,0.0,0.0,0.0,0.0,0.0,0.0,0.0,0.0,0.0,0.0,0.0,0.0,0.0,0.0,0.0,0.0,0.0,0.0,0.0,0.0,0.0,0.0,0.0,0.0,0.0,0.0,0.0,0.0,0.0,0.0,0.0,0.0,0.0,0.0,0.0,0.0,0.0,0.0,0.10000000149011612,3983603372,7,6
827477062,2,292,87,0,6032000,6032,87,0,0,0,16384,0,0,0,0.0,0.0,0.0,1.0,0.0,0.0,0.0,6.0,8.0,14.0,1000,1050,1100,1150,1200,1250,1300,1350,1300,1500,1500,1300,1300,1,1,1,1,1,1,1,1,0,0,0,0,stabilized_mix,0.0,0.0,0.0,0.0,0.0,0.0,0.0,0.0,0.0,0.0,0.0,0.0,0.0,0.0,0.0,0.0,0.0,0.0,0.0,0.0,0.0,0.0,0.0,0.0,0.0,0.0,0.0,0.0,0.0,0.0,0.0,0.0,0.0,0.0,0.0,0.0,0.0,0.0,0.0,0.0,0.10000000149011612,2167307962,7,6
827477062,2,292,88,0,6036000,6036,88,0,0,0,16384,0,0,0,0.0,0.0,0.0,1.0,0.0,0.0,0.0,6.0,9.0,15.0,1000,1050,1100,1150,1200,1250,1300,1350,1300,1500,1500,1300,1300,1,1,1,1,1,1,1,1,0,0,0,0,stabilized_mix,0.0,0.0,0.0,0.0,0.0,0.0,0.0,0.0,0.0,0.0,0.0,0.0,0.0,0.0,0.0,0.0,0.0,0.0,0.0,0.0,0.0,0.0,0.0,0.0,0.0,0.0,0.0,0.0,0.0,0.0,0.0,0.0,0.0,0.0,0.0,0.0,0.0,0.0,0.0,0.0,0.10000000149011612,1519763472,7,6
827477062,2,292,89,0,6040000,6040,89,0,0,0,16384,0,0,0,0.0,0.0,0.0,1.0,0.0,0.0,0.0,6.0,10.0,16.0,1000,1050,1100,1150,1200,1250,1300,1350,1300,1500,1500,1300,1300,1,1,1,1,1,1,1,1,0,0,0,0,stabilized_mix,0.0,0.0,0.0,0.0,0.0,0.0,0.0,0.0,0.0,0.0,0.0,0.0,0.0,0.0,0.0,0.0,0.0,0.0,0.0,0.0,0.0,0.0,0.0,0.0,0.0,0.0,0.0,0.0,0.0,0.0,0.0,0.0,0.0,0.0,0.0,0.0,0.0,0.0,0.0,0.0,0.10000000149011612,338743098,7,6
827477062,2,292,90,0,6044000,6044,90,0,0,0,16384,0,0,0,0.0,0.0,0.0,1.0,0.0,0.0,0.0,6.0,11.0,17.0,1000,1050,1100,1150,1200,1250,1300,1350,1300,1500,1500,1300,1300,1,1,1,1,1,1,1,1,0,0,0,0,stabilized_mix,0.0,0.0,0.0,0.0,0.0,0.0,0.0,0.0,0.0,0.0,0.0,0.0,0.0,0.0,0.0,0.0,0.0,0.0,0.0,0.0,0.0,0.0,0.0,0.0,0.0,0.0,0.0,0.0,0.0,0.0,0.0,0.0,0.0,0.0,0.0,0.0,0.0,0.0,0.0,0.0,0.10000000149011612,2388785079,7,6
827477062,2,292,91,0,6048000,6048,91,0,0,0,16384,0,0,0,0.0,0.0,0.0,1.0,0.0,0.0,0.0,6.0,12.0,18.0,1000,1050,1100,1150,1200,1250,1300,1350,1300,1500,1500,1300,1300,1,1,1,1,1,1,1,1,0,0,0,0,stabilized_mix,0.0,0.0,0.0,0.0,0.0,0.0,0.0,0.0,0.0,0.0,0.0,0.0,0.0,0.0,0.0,0.0,0.0,0.0,0.0,0.0,0.0,0.0,0.0,0.0,0.0,0.0,0.0,0.0,0.0,0.0,0.0,0.0,0.0,0.0,0.0,0.0,0.0,0.0,0.0,0.0,0.10000000149011612,1697301774,7,6
827477062,2,292,92,0,7000000,7000,92,0,0,0,16384,0,0,0,0.0,0.0,0.0,1.0,0.0,0.0,0.0,7.0,0.0,7.0,1000,1050,1100,1150,1200,1250,1300,1350,1300,1500,1500,1300,1300,1,1,1,1,1,1,1,1,0,0,0,0,stabilized_mix,0.0,0.0,0.0,0.0,0.0,0.0,0.0,0.0,0.0,0.0,0.0,0.0,0.0,0.0,0.0,0.0,0.0,0.0,0.0,0.0,0.0,0.0,0.0,0.0,0.0,0.0,0.0,0.0,0.0,0.0,0.0,0.0,0.0,0.0,0.0,0.0,0.0,0.0,0.0,0.0,0.10000000149011612,1947730116,8,7
827477062,2,292,93,0,7004000,7004,93,0,0,0,16384,0,0,0,0.0,0.0,0.0,1.0,0.0,0.0,0.0,7.0,1.0,8.0,1000,1050,1100,1150,1200,1250,1300,1350,1300,1500,1500,1300,1300,1,1,1,1,1,1,1,1,0,0,0,0,stabilized_mix,0.0,0.0,0.0,0.0,0.0,0.0,0.0,0.0,0.0,0.0,0.0,0.0,0.0,0.0,0.0,0.0,0.0,0.0,0.0,0.0,0.0,0.0,0.0,0.0,0.0,0.0,0.0,0.0,0.0,0.0,0.0,0.0,0.0,0.0,0.0,0.0,0.0,0.0,0.0,0.0,0.10000000149011612,656793617,8,7
827477062,2,292,94,0,7008000,7008,94,0,0,0,16384,0,0,0,0.0,0.0,0.0,1.0,0.0,0.0,0.0,7.0,2.0,9.0,1000,1050,1100,1150,1200,1250,1300,1350,1300,1500,1500,1300,1300,1,1,1,1,1,1,1,1,0,0,0,0,stabilized_mix,0.0,0.0,0.0,0.0,0.0,0.0,0.0,0.0,0.0,0.0,0.0,0.0,0.0,0.0,0.0,0.0,0.0,0.0,0.0,0.0,0.0,0.0,0.0,0.0,0.0,0.0,0.0,0.0,0.0,0.0,0.0,0.0,0.0,0.0,0.0,0.0,0.0,0.0,0.0,0.0,0.10000000149011612,1413630201,8,7
827477062,2,292,95,0,7012000,7012,95,0,0,0,16384,0,0,0,0.0,0.0,0.0,1.0,0.0,0.0,0.0,7.0,3.0,10.0,1000,1050,1100,1150,1200,1250,1300,1350,1300,1500,1500,1300,1300,1,1,1,1,1,1,1,1,0,0,0,0,stabilized_mix,0.0,0.0,0.0,0.0,0.0,0.0,0.0,0.0,0.0,0.0,0.0,0.0,0.0,0.0,0.0,0.0,0.0,0.0,0.0,0.0,0.0,0.0,0.0,0.0,0.0,0.0,0.0,0.0,0.0,0.0,0.0,0.0,0.0,0.0,0.0,0.0,0.0,0.0,0.0,0.0,0.10000000149011612,1919234684,8,7
827477062,2,292,96,0,7016000,7016,96,0,0,0,16384,0,0,0,0.0,0.0,0.0,1.0,0.0,0.0,0.0,7.0,4.0,11.0,1000,1050,1100,1150,1200,1250,1300,1350,1300,1500,1500,1300,1300,1,1,1,1,1,1,1,1,0,0,0,0,stabilized_mix,0.0,0.0,0.0,0.0,0.0,0.0,0.0,0.0,0.0,0.0,0.0,0.0,0.0,0.0,0.0,0.0,0.0,0.0,0.0,0.0,0.0,0.0,0.0,0.0,0.0,0.0,0.0,0.0,0.0,0.0,0.0,0.0,0.0,0.0,0.0,0.0,0.0,0.0,0.0,0.0,0.10000000149011612,3128598206,8,7
827477062,2,292,97,0,7020000,7020,97,0,0,0,16384,0,0,0,0.0,0.0,0.0,1.0,0.0,0.0,0.0,7.0,5.0,12.0,1000,1050,1100,1150,1200,1250,1300,1350,1300,1500,1500,1300,1300,1,1,1,1,1,1,1,1,0,0,0,0,stabilized_mix,0.0,0.0,0.0,0.0,0.0,0.0,0.0,0.0,0.0,0.0,0.0,0.0,0.0,0.0,0.0,0.0,0.0,0.0,0.0,0.0,0.0,0.0,0.0,0.0,0.0,0.0,0.0,0.0,0.0,0.0,0.0,0.0,0.0,0.0,0.0,0.0,0.0,0.0,0.0,0.0,0.10000000149011612,2498591136,8,7
827477062,2,292,98,0,7024000,7024,98,0,0,0,16384,0,0,0,0.0,0.0,0.0,1.0,0.0,0.0,0.0,7.0,6.0,13.0,1000,1050,1100,1150,1200,1250,1300,1350,1300,1500,1500,1300,1300,1,1,1,1,1,1,1,1,0,0,0,0,stabilized_mix,0.0,0.0,0.0,0.0,0.0,0.0,0.0,0.0,0.0,0.0,0.0,0.0,0.0,0.0,0.0,0.0,0.0,0.0,0.0,0.0,0.0,0.0,0.0,0.0,0.0,0.0,0.0,0.0,0.0,0.0,0.0,0.0,0.0,0.0,0.0,0.0,0.0,0.0,0.0,0.0,0.10000000149011612,465189251,8,7
827477062,2,292,99,0,7028000,7028,99,0,0,0,16384,0,0,0,0.0,0.0,0.0,1.0,0.0,0.0,0.0,7.0,7.0,14.0,1000,1050,1100,1150,1200,1250,1300,1350,1300,1500,1500,1300,1300,1,1,1,1,1,1,1,1,0,0,0,0,stabilized_mix,0.0,0.0,0.0,0.0,0.0,0.0,0.0,0.0,0.0,0.0,0.0,0.0,0.0,0.0,0.0,0.0,0.0,0.0,0.0,0.0,0.0,0.0,0.0,0.0,0.0,0.0,0.0,0.0,0.0,0.0,0.0,0.0,0.0,0.0,0.0,0.0,0.0,0.0,0.0,0.0,0.10000000149011612,1103642788,8,7
827477062,2,292,100,0,7032000,7032,100,0,0,0,16384,0,0,0,0.0,0.0,0.0,1.0,0.0,0.0,0.0,7.0,8.0,15.0,1000,1050,1100,1150,1200,1250,1300,1350,1300,1500,1500,1300,1300,1,1,1,1,1,1,1,1,0,0,0,0,stabilized_mix,0.0,0.0,0.0,0.0,0.0,0.0,0.0,0.0,0.0,0.0,0.0,0.0,0.0,0.0,0.0,0.0,0.0,0.0,0.0,0.0,0.0,0.0,0.0,0.0,0.0,0.0,0.0,0.0,0.0,0.0,0.0,0.0,0.0,0.0,0.0,0.0,0.0,0.0,0.0,0.0,0.10000000149011612,2417602317,8,7
827477062,2,292,101,0,7036000,7036,101,0,0,0,16384,0,0,0,0.0,0.0,0.0,1.0,0.0,0.0,0.0,7.0,9.0,16.0,1000,1050,1100,1150,1200,1250,1300,1350,1300,1500,1500,1300,1300,1,1,1,1,1,1,1,1,0,0,0,0,stabilized_mix,0.0,0.0,0.0,0.0,0.0,0.0,0.0,0.0,0.0,0.0,0.0,0.0,0.0,0.0,0.0,0.0,0.0,0.0,0.0,0.0,0.0,0.0,0.0,0.0,0.0,0.0,0.0,0.0,0.0,0.0,0.0,0.0,0.0,0.0,0.0,0.0,0.0,0.0,0.0,0.0,0.10000000149011612,2201184715,8,7
827477062,2,292,102,0,7040000,7040,102,0,0,0,16384,0,0,0,0.0,0.0,0.0,1.0,0.0,0.0,0.0,7.0,10.0,17.0,1000,1050,1100,1150,1200,1250,1300,1350,1300,1500,1500,1300,1300,1,1,1,1,1,1,1,1,0,0,0,0,stabilized_mix,0.0,0.0,0.0,0.0,0.0,0.0,0.0,0.0,0.0,0.0,0.0,0.0,0.0,0.0,0.0,0.0,0.0,0.0,0.0,0.0,0.0,0.0,0.0,0.0,0.0,0.0,0.0,0.0,0.0,0.0,0.0,0.0,0.0,0.0,0.0,0.0,0.0,0.0,0.0,0.0,0.10000000149011612,1730882930,8,7
827477062,2,292,103,0,7044000,7044,103,0,0,0,16384,0,0,0,0.0,0.0,0.0,1.0,0.0,0.0,0.0,7.0,11.0,18.0,1000,1050,1100,1150,1200,1250,1300,1350,1300,1500,1500,1300,1300,1,1,1,1,1,1,1,1,0,0,0,0,stabilized_mix,0.0,0.0,0.0,0.0,0.0,0.0,0.0,0.0,0.0,0.0,0.0,0.0,0.0,0.0,0.0,0.0,0.0,0.0,0.0,0.0,0.0,0.0,0.0,0.0,0.0,0.0,0.0,0.0,0.0,0.0,0.0,0.0,0.0,0.0,0.0,0.0,0.0,0.0,0.0,0.0,0.10000000149011612,2985892057,8,7
827477062,2,292,104,0,7048000,7048,104,0,0,0,16384,0,0,0,0.0,0.0,0.0,1.0,0.0,0.0,0.0,7.0,12.0,19.0,1000,1050,1100,1150,1200,1250,1300,1350,1300,1500,1500,1300,1300,1,1,1,1,1,1,1,1,0,0,0,0,stabilized_mix,0.0,0.0,0.0,0.0,0.0,0.0,0.0,0.0,0.0,0.0,0.0,0.0,0.0,0.0,0.0,0.0,0.0,0.0,0.0,0.0,0.0,0.0,0.0,0.0,0.0,0.0,0.0,0.0,0.0,0.0,0.0,0.0,0.0,0.0,0.0,0.0,0.0,0.0,0.0,0.0,0.10000000149011612,457552277,8,7
827477062,2,292,105,0,8000000,8000,105,0,0,0,16384,0,0,0,0.0,0.0,0.0,1.0,0.0,0.0,0.0,8.0,0.0,8.0,1000,1050,1100,1150,1200,1250,1300,1350,1300,1500,1500,1300,1300,1,1,1,1,1,1,1,1,0,0,0,0,stabilized_mix,0.0,0.0,0.0,0.0,0.0,0.0,0.0,0.0,0.0,0.0,0.0,0.0,0.0,0.0,0.0,0.0,0.0,0.0,0.0,0.0,0.0,0.0,0.0,0.0,0.0,0.0,0.0,0.0,0.0,0.0,0.0,0.0,0.0,0.0,0.0,0.0,0.0,0.0,0.0,0.0,0.10000000149011612,3618216695,9,8
827477062,2,292,106,0,8004000,8004,106,0,0,0,16384,0,0,0,0.0,0.0,0.0,1.0,0.0,0.0,0.0,8.0,1.0,9.0,1000,1050,1100,1150,1200,1250,1300,1350,1300,1500,1500,1300,1300,1,1,1,1,1,1,1,1,0,0,0,0,stabilized_mix,0.0,0.0,0.0,0.0,0.0,0.0,0.0,0.0,0.0,0.0,0.0,0.0,0.0,0.0,0.0,0.0,0.0,0.0,0.0,0.0,0.0,0.0,0.0,0.0,0.0,0.0,0.0,0.0,0.0,0.0,0.0,0.0,0.0,0.0,0.0,0.0,0.0,0.0,0.0,0.0,0.10000000149011612,1767003655,9,8
827477062,2,292,107,0,8008000,8008,107,0,0,0,16384,0,0,0,0.0,0.0,0.0,1.0,0.0,0.0,0.0,8.0,2.0,10.0,1000,1050,1100,1150,1200,1250,1300,1350,1300,1500,1500,1300,1300,1,1,1,1,1,1,1,1,0,0,0,0,stabilized_mix,0.0,0.0,0.0,0.0,0.0,0.0,0.0,0.0,0.0,0.0,0.0,0.0,0.0,0.0,0.0,0.0,0.0,0.0,0.0,0.0,0.0,0.0,0.0,0.0,0.0,0.0,0.0,0.0,0.0,0.0,0.0,0.0,0.0,0.0,0.0,0.0,0.0,0.0,0.0,0.0,0.10000000149011612,4100612904,9,8
827477062,2,292,108,0,8012000,8012,108,0,0,0,16384,0,0,0,0.0,0.0,0.0,1.0,0.0,0.0,0.0,8.0,3.0,11.0,1000,1050,1100,1150,1200,1250,1300,1350,1300,1500,1500,1300,1300,1,1,1,1,1,1,1,1,0,0,0,0,stabilized_mix,0.0,0.0,0.0,0.0,0.0,0.0,0.0,0.0,0.0,0.0,0.0,0.0,0.0,0.0,0.0,0.0,0.0,0.0,0.0,0.0,0.0,0.0,0.0,0.0,0.0,0.0,0.0,0.0,0.0,0.0,0.0,0.0,0.0,0.0,0.0,0.0,0.0,0.0,0.0,0.0,0.10000000149011612,1660520911,9,8
827477062,2,292,109,0,8016000,8016,109,0,0,0,16384,0,0,0,0.0,0.0,0.0,1.0,0.0,0.0,0.0,8.0,4.0,12.0,1000,1050,1100,1150,1200,1250,1300,1350,1300,1500,1500,1300,1300,1,1,1,1,1,1,1,1,0,0,0,0,stabilized_mix,0.0,0.0,0.0,0.0,0.0,0.0,0.0,0.0,0.0,0.0,0.0,0.0,0.0,0.0,0.0,0.0,0.0,0.0,0.0,0.0,0.0,0.0,0.0,0.0,0.0,0.0,0.0,0.0,0.0,0.0,0.0,0.0,0.0,0.0,0.0,0.0,0.0,0.0,0.0,0.0,0.10000000149011612,1036437153,9,8
827477062,2,292,110,0,8020000,8020,110,0,0,0,16384,0,0,0,0.0,0.0,0.0,1.0,0.0,0.0,0.0,8.0,5.0,13.0,1000,1050,1100,1150,1200,1250,1300,1350,1300,1500,1500,1300,1300,1,1,1,1,1,1,1,1,0,0,0,0,stabilized_mix,0.0,0.0,0.0,0.0,0.0,0.0,0.0,0.0,0.0,0.0,0.0,0.0,0.0,0.0,0.0,0.0,0.0,0.0,0.0,0.0,0.0,0.0,0.0,0.0,0.0,0.0,0.0,0.0,0.0,0.0,0.0,0.0,0.0,0.0,0.0,0.0,0.0,0.0,0.0,0.0,0.10000000149011612,1204169236,9,8
827477062,2,292,111,0,8024000,8024,111,0,0,0,16384,0,0,0,0.0,0.0,0.0,1.0,0.0,0.0,0.0,8.0,6.0,14.0,1000,1050,1100,1150,1200,1250,1300,1350,1300,1500,1500,1300,1300,1,1,1,1,1,1,1,1,0,0,0,0,stabilized_mix,0.0,0.0,0.0,0.0,0.0,0.0,0.0,0.0,0.0,0.0,0.0,0.0,0.0,0.0,0.0,0.0,0.0,0.0,0.0,0.0,0.0,0.0,0.0,0.0,0.0,0.0,0.0,0.0,0.0,0.0,0.0,0.0,0.0,0.0,0.0,0.0,0.0,0.0,0.0,0.0,0.10000000149011612,3986680079,9,8
827477062,2,292,112,0,8028000,8028,112,0,0,0,16384,0,0,0,0.0,0.0,0.0,1.0,0.0,0.0,0.0,8.0,7.0,15.0,1000,1050,1100,1150,1200,1250,1300,1350,1300,1500,1500,1300,1300,1,1,1,1,1,1,1,1,0,0,0,0,stabilized_mix,0.0,0.0,0.0,0.0,0.0,0.0,0.0,0.0,0.0,0.0,0.0,0.0,0.0,0.0,0.0,0.0,0.0,0.0,0.0,0.0,0.0,0.0,0.0,0.0,0.0,0.0,0.0,0.0,0.0,0.0,0.0,0.0,0.0,0.0,0.0,0.0,0.0,0.0,0.0,0.0,0.10000000149011612,1092551271,9,8
827477062,2,292,113,0,8032000,8032,113,0,0,0,16384,0,0,0,0.0,0.0,0.0,1.0,0.0,0.0,0.0,8.0,8.0,16.0,1000,1050,1100,1150,1200,1250,1300,1350,1300,1500,1500,1300,1300,1,1,1,1,1,1,1,1,0,0,0,0,stabilized_mix,0.0,0.0,0.0,0.0,0.0,0.0,0.0,0.0,0.0,0.0,0.0,0.0,0.0,0.0,0.0,0.0,0.0,0.0,0.0,0.0,0.0,0.0,0.0,0.0,0.0,0.0,0.0,0.0,0.0,0.0,0.0,0.0,0.0,0.0,0.0,0.0,0.0,0.0,0.0,0.0,0.10000000149011612,254935053,9,8
827477062,2,292,114,0,8036000,8036,114,0,0,0,16384,0,0,0,0.0,0.0,0.0,1.0,0.0,0.0,0.0,8.0,9.0,17.0,1000,1050,1100,1150,1200,1250,1300,1350,1300,1500,1500,1300,1300,1,1,1,1,1,1,1,1,0,0,0,0,stabilized_mix,0.0,0.0,0.0,0.0,0.0,0.0,0.0,0.0,0.0,0.0,0.0,0.0,0.0,0.0,0.0,0.0,0.0,0.0,0.0,0.0,0.0,0.0,0.0,0.0,0.0,0.0,0.0,0.0,0.0,0.0,0.0,0.0,0.0,0.0,0.0,0.0,0.0,0.0,0.0,0.0,0.10000000149011612,4141787355,9,8
827477062,2,292,115,0,8040000,8040,115,0,0,0,16384,0,0,0,0.0,0.0,0.0,1.0,0.0,0.0,0.0,8.0,10.0,18.0,1000,1050,1100,1150,1200,1250,1300,1350,1300,1500,1500,1300,1300,1,1,1,1,1,1,1,1,0,0,0,0,stabilized_mix,0.0,0.0,0.0,0.0,0.0,0.0,0.0,0.0,0.0,0.0,0.0,0.0,0.0,0.0,0.0,0.0,0.0,0.0,0.0,0.0,0.0,0.0,0.0,0.0,0.0,0.0,0.0,0.0,0.0,0.0,0.0,0.0,0.0,0.0,0.0,0.0,0.0,0.0,0.0,0.0,0.10000000149011612,671355825,9,8
827477062,2,292,116,0,8044000,8044,116,0,0,0,16384,0,0,0,0.0,0.0,0.0,1.0,0.0,0.0,0.0,8.0,11.0,19.0,1000,1050,1100,1150,1200,1250,1300,1350,1300,1500,1500,1300,1300,1,1,1,1,1,1,1,1,0,0,0,0,stabilized_mix,0.0,0.0,0.0,0.0,0.0,0.0,0.0,0.0,0.0,0.0,0.0,0.0,0.0,0.0,0.0,0.0,0.0,0.0,0.0,0.0,0.0,0.0,0.0,0.0,0.0,0.0,0.0,0.0,0.0,0.0,0.0,0.0,0.0,0.0,0.0,0.0,0.0,0.0,0.0,0.0,0.10000000149011612,3732340534,9,8
827477062,2,292,117,0,8048000,8048,117,0,0,0,16384,0,0,0,0.0,0.0,0.0,1.0,0.0,0.0,0.0,8.0,12.0,20.0,1000,1050,1100,1150,1200,1250,1300,1350,1300,1500,1500,1300,1300,1,1,1,1,1,1,1,1,0,0,0,0,stabilized_mix,0.0,0.0,0.0,0.0,0.0,0.0,0.0,0.0,0.0,0.0,0.0,0.0,0.0,0.0,0.0,0.0,0.0,0.0,0.0,0.0,0.0,0.0,0.0,0.0,0.0,0.0,0.0,0.0,0.0,0.0,0.0,0.0,0.0,0.0,0.0,0.0,0.0,0.0,0.0,0.0,0.10000000149011612,1096689525,9,8
827477062,2,292,118,0,9000000,9000,118,0,0,0,16384,0,0,0,0.0,0.0,0.0,1.0,0.0,0.0,0.0,9.0,0.0,9.0,1000,1050,1100,1150,1200,1250,1300,1350,1300,1500,1500,1300,1300,1,1,1,1,1,1,1,1,0,0,0,0,stabilized_mix,0.0,0.0,0.0,0.0,0.0,0.0,0.0,0.0,0.0,0.0,0.0,0.0,0.0,0.0,0.0,0.0,0.0,0.0,0.0,0.0,0.0,0.0,0.0,0.0,0.0,0.0,0.0,0.0,0.0,0.0,0.0,0.0,0.0,0.0,0.0,0.0,0.0,0.0,0.0,0.0,0.10000000149011612,2237249622,10,9
827477062,2,292,119,0,9004000,9004,119,0,0,0,16384,0,0,0,0.0,0.0,0.0,1.0,0.0,0.0,0.0,9.0,1.0,10.0,1000,1050,1100,1150,1200,1250,1300,1350,1300,1500,1500,1300,1300,1,1,1,1,1,1,1,1,0,0,0,0,stabilized_mix,0.0,0.0,0.0,0.0,0.0,0.0,0.0,0.0,0.0,0.0,0.0,0.0,0.0,0.0,0.0,0.0,0.0,0.0,0.0,0.0,0.0,0.0,0.0,0.0,0.0,0.0,0.0,0.0,0.0,0.0,0.0,0.0,0.0,0.0,0.0,0.0,0.0,0.0,0.0,0.0,0.10000000149011612,2415826354,10,9
827477062,2,292,120,0,9008000,9008,120,0,0,0,16384,0,0,0,0.0,0.0,0.0,1.0,0.0,0.0,0.0,9.0,2.0,11.0,1000,1050,1100,1150,1200,1250,1300,1350,1300,1500,1500,1300,1300,1,1,1,1,1,1,1,1,0,0,0,0,stabilized_mix,0.0,0.0,0.0,0.0,0.0,0.0,0.0,0.0,0.0,0.0,0.0,0.0,0.0,0.0,0.0,0.0,0.0,0.0,0.0,0.0,0.0,0.0,0.0,0.0,0.0,0.0,0.0,0.0,0.0,0.0,0.0,0.0,0.0,0.0,0.0,0.0,0.0,0.0,0.0,0.0,0.10000000149011612,2736576521,10,9
827477062,2,292,121,0,9012000,9012,121,0,0,0,16384,0,0,0,0.0,0.0,0.0,1.0,0.0,0.0,0.0,9.0,3.0,12.0,1000,1050,1100,1150,1200,1250,1300,1350,1300,1500,1500,1300,1300,1,1,1,1,1,1,1,1,0,0,0,0,stabilized_mix,0.0,0.0,0.0,0.0,0.0,0.0,0.0,0.0,0.0,0.0,0.0,0.0,0.0,0.0,0.0,0.0,0.0,0.0,0.0,0.0,0.0,0.0,0.0,0.0,0.0,0.0,0.0,0.0,0.0,0.0,0.0,0.0,0.0,0.0,0.0,0.0,0.0,0.0,0.0,0.0,0.10000000149011612,527010961,10,9
827477062,2,292,122,0,9016000,9016,122,0,0,0,16384,0,0,0,0.0,0.0,0.0,1.0,0.0,0.0,0.0,9.0,4.0,13.0,1000,1050,1100,1150,1200,1250,1300,1350,1300,1500,1500,1300,1300,1,1,1,1,1,1,1,1,0,0,0,0,stabilized_mix,0.0,0.0,0.0,0.0,0.0,0.0,0.0,0.0,0.0,0.0,0.0,0.0,0.0,0.0,0.0,0.0,0.0,0.0,0.0,0.0,0.0,0.0,0.0,0.0,0.0,0.0,0.0,0.0,0.0,0.0,0.0,0.0,0.0,0.0,0.0,0.0,0.0,0.0,0.0,0.0,0.10000000149011612,3226250892,10,9
827477062,2,292,123,0,9020000,9020,123,0,0,0,16384,0,0,0,0.0,0.0,0.0,1.0,0.0,0.0,0.0,9.0,5.0,14.0,1000,1050,1100,1150,1200,1250,1300,1350,1300,1500,1500,1300,1300,1,1,1,1,1,1,1,1,0,0,0,0,stabilized_mix,0.0,0.0,0.0,0.0,0.0,0.0,0.0,0.0,0.0,0.0,0.0,0.0,0.0,0.0,0.0,0.0,0.0,0.0,0.0,0.0,0.0,0.0,0.0,0.0,0.0,0.0,0.0,0.0,0.0,0.0,0.0,0.0,0.0,0.0,0.0,0.0,0.0,0.0,0.0,0.0,0.10000000149011612,1536680960,10,9
827477062,2,292,124,0,9024000,9024,124,0,0,0,16384,0,0,0,0.0,0.0,0.0,1.0,0.0,0.0,0.0,9.0,6.0,15.0,1000,1050,1100,1150,1200,1250,1300,1350,1300,1500,1500,1300,1300,1,1,1,1,1,1,1,1,0,0,0,0,stabilized_mix,0.0,0.0,0.0,0.0,0.0,0.0,0.0,0.0,0.0,0.0,0.0,0.0,0.0,0.0,0.0,0.0,0.0,0.0,0.0,0.0,0.0,0.0,0.0,0.0,0.0,0.0,0.0,0.0,0.0,0.0,0.0,0.0,0.0,0.0,0.0,0.0,0.0,0.0,0.0,0.0,0.10000000149011612,4179260895,10,9
827477062,2,292,125,0,9028000,9028,125,0,0,0,16384,0,0,0,0.0,0.0,0.0,1.0,0.0,0.0,0.0,9.0,7.0,16.0,1000,1050,1100,1150,1200,1250,1300,1350,1300,1500,1500,1300,1300,1,1,1,1,1,1,1,1,0,0,0,0,stabilized_mix,0.0,0.0,0.0,0.0,0.0,0.0,0.0,0.0,0.0,0.0,0.0,0.0,0.0,0.0,0.0,0.0,0.0,0.0,0.0,0.0,0.0,0.0,0.0,0.0,0.0,0.0,0.0,0.0,0.0,0.0,0.0,0.0,0.0,0.0,0.0,0.0,0.0,0.0,0.0,0.0,0.10000000149011612,892378004,10,9
827477062,2,292,126,0,9032000,9032,126,0,0,0,16384,0,0,0,0.0,0.0,0.0,1.0,0.0,0.0,0.0,9.0,8.0,17.0,1000,1050,1100,1150,1200,1250,1300,1350,1300,1500,1500,1300,1300,1,1,1,1,1,1,1,1,0,0,0,0,stabilized_mix,0.0,0.0,0.0,0.0,0.0,0.0,0.0,0.0,0.0,0.0,0.0,0.0,0.0,0.0,0.0,0.0,0.0,0.0,0.0,0.0,0.0,0.0,0.0,0.0,0.0,0.0,0.0,0.0,0.0,0.0,0.0,0.0,0.0,0.0,0.0,0.0,0.0,0.0,0.0,0.0,0.10000000149011612,361234290,10,9
827477062,2,292,127,0,9036000,9036,127,0,0,0,16384,0,0,0,0.0,0.0,0.0,1.0,0.0,0.0,0.0,9.0,9.0,18.0,1000,1050,1100,1150,1200,1250,1300,1350,1300,1500,1500,1300,1300,1,1,1,1,1,1,1,1,0,0,0,0,stabilized_mix,0.0,0.0,0.0,0.0,0.0,0.0,0.0,0.0,0.0,0.0,0.0,0.0,0.0,0.0,0.0,0.0,0.0,0.0,0.0,0.0,0.0,0.0,0.0,0.0,0.0,0.0,0.0,0.0,0.0,0.0,0.0,0.0,0.0,0.0,0.0,0.0,0.0,0.0,0.0,0.0,0.10000000149011612,2415959785,10,9
827477062,2,292,128,0,9040000,9040,128,0,0,0,16384,0,0,0,0.0,0.0,0.0,1.0,0.0,0.0,0.0,9.0,10.0,19.0,1000,1050,1100,1150,1200,1250,1300,1350,1300,1500,1500,1300,1300,1,1,1,1,1,1,1,1,0,0,0,0,stabilized_mix,0.0,0.0,0.0,0.0,0.0,0.0,0.0,0.0,0.0,0.0,0.0,0.0,0.0,0.0,0.0,0.0,0.0,0.0,0.0,0.0,0.0,0.0,0.0,0.0,0.0,0.0,0.0,0.0,0.0,0.0,0.0,0.0,0.0,0.0,0.0,0.0,0.0,0.0,0.0,0.0,0.10000000149011612,1317932749,10,9
827477062,2,292,129,0,9044000,9044,129,0,0,0,16384,0,0,0,0.0,0.0,0.0,1.0,0.0,0.0,0.0,9.0,11.0,20.0,1000,1050,1100,1150,1200,1250,1300,1350,1300,1500,1500,1300,1300,1,1,1,1,1,1,1,1,0,0,0,0,stabilized_mix,0.0,0.0,0.0,0.0,0.0,0.0,0.0,0.0,0.0,0.0,0.0,0.0,0.0,0.0,0.0,0.0,0.0,0.0,0.0,0.0,0.0,0.0,0.0,0.0,0.0,0.0,0.0,0.0,0.0,0.0,0.0,0.0,0.0,0.0,0.0,0.0,0.0,0.0,0.0,0.0,0.10000000149011612,1068780344,10,9
827477062,2,292,130,0,9048000,9048,130,0,0,0,16384,0,0,0,0.0,0.0,0.0,1.0,0.0,0.0,0.0,9.0,12.0,21.0,1000,1050,1100,1150,1200,1250,1300,1350,1300,1500,1500,1300,1300,1,1,1,1,1,1,1,1,0,0,0,0,stabilized_mix,0.0,0.0,0.0,0.0,0.0,0.0,0.0,0.0,0.0,0.0,0.0,0.0,0.0,0.0,0.0,0.0,0.0,0.0,0.0,0.0,0.0,0.0,0.0,0.0,0.0,0.0,0.0,0.0,0.0,0.0,0.0,0.0,0.0,0.0,0.0,0.0,0.0,0.0,0.0,0.0,0.10000000149011612,3921263329,10,9
827477062,2,292,131,0,10000000,10000,131,0,0,0,16384,0,0,0,0.0,0.0,0.0,1.0,0.0,0.0,0.0,10.0,0.0,10.0,1000,1050,1100,1150,1200,1250,1300,1350,1300,1500,1500,1300,1300,1,1,1,1,1,1,1,1,0,0,0,0,stabilized_mix,0.0,0.0,0.0,0.0,0.0,0.0,0.0,0.0,0.0,0.0,0.0,0.0,0.0,0.0,0.0,0.0,0.0,0.0,0.0,0.0,0.0,0.0,0.0,0.0,0.0,0.0,0.0,0.0,0.0,0.0,0.0,0.0,0.0,0.0,0.0,0.0,0.0,0.0,0.0,0.0,0.10000000149011612,4099292987,11,10
827477062,2,292,132,0,10004000,10004,132,0,0,0,16384,0,0,0,0.0,0.0,0.0,1.0,0.0,0.0,0.0,10.0,1.0,11.0,1000,1050,1100,1150,1200,1250,1300,1350,1300,1500,1500,1300,1300,1,1,1,1,1,1,1,1,0,0,0,0,stabilized_mix,0.0,0.0,0.0,0.0,0.0,0.0,0.0,0.0,0.0,0.0,0.0,0.0,0.0,0.0,0.0,0.0,0.0,0.0,0.0,0.0,0.0,0.0,0.0,0.0,0.0,0.0,0.0,0.0,0.0,0.0,0.0,0.0,0.0,0.0,0.0,0.0,0.0,0.0,0.0,0.0,0.10000000149011612,646850497,11,10
827477062,2,292,133,0,10008000,10008,133,0,0,0,16384,0,0,0,0.0,0.0,0.0,1.0,0.0,0.0,0.0,10.0,2.0,12.0,1000,1050,1100,1150,1200,1250,1300,1350,1300,1500,1500,1300,1300,1,1,1,1,1,1,1,1,0,0,0,0,stabilized_mix,0.0,0.0,0.0,0.0,0.0,0.0,0.0,0.0,0.0,0.0,0.0,0.0,0.0,0.0,0.0,0.0,0.0,0.0,0.0,0.0,0.0,0.0,0.0,0.0,0.0,0.0,0.0,0.0,0.0,0.0,0.0,0.0,0.0,0.0,0.0,0.0,0.0,0.0,0.0,0.0,0.10000000149011612,3478359255,11,10
827477062,2,292,134,0,10012000,10012,134,0,0,0,16384,0,0,0,0.0,0.0,0.0,1.0,0.0,0.0,0.0,10.0,3.0,13.0,1000,1050,1100,1150,1200,1250,1300,1350,1300,1500,1500,1300,1300,1,1,1,1,1,1,1,1,0,0,0,0,stabilized_mix,0.0,0.0,0.0,0.0,0.0,0.0,0.0,0.0,0.0,0.0,0.0,0.0,0.0,0.0,0.0,0.0,0.0,0.0,0.0,0.0,0.0,0.0,0.0,0.0,0.0,0.0,0.0,0.0,0.0,0.0,0.0,0.0,0.0,0.0,0.0,0.0,0.0,0.0,0.0,0.0,0.10000000149011612,4070085260,11,10
827477062,2,292,135,0,10016000,10016,135,0,0,0,16384,0,0,0,0.0,0.0,0.0,1.0,0.0,0.0,0.0,10.0,4.0,14.0,1000,1050,1100,1150,1200,1250,1300,1350,1300,1500,1500,1300,1300,1,1,1,1,1,1,1,1,0,0,0,0,stabilized_mix,0.0,0.0,0.0,0.0,0.0,0.0,0.0,0.0,0.0,0.0,0.0,0.0,0.0,0.0,0.0,0.0,0.0,0.0,0.0,0.0,0.0,0.0,0.0,0.0,0.0,0.0,0.0,0.0,0.0,0.0,0.0,0.0,0.0,0.0,0.0,0.0,0.0,0.0,0.0,0.0,0.10000000149011612,1643548326,11,10
827477062,2,292,136,0,10020000,10020,136,0,0,0,16384,0,0,0,0.0,0.0,0.0,1.0,0.0,0.0,0.0,10.0,5.0,15.0,1000,1050,1100,1150,1200,1250,1300,1350,1300,1500,1500,1300,1300,1,1,1,1,1,1,1,1,0,0,0,0,stabilized_mix,0.0,0.0,0.0,0.0,0.0,0.0,0.0,0.0,0.0,0.0,0.0,0.0,0.0,0.0,0.0,0.0,0.0,0.0,0.0,0.0,0.0,0.0,0.0,0.0,0.0,0.0,0.0,0.0,0.0,0.0,0.0,0.0,0.0,0.0,0.0,0.0,0.0,0.0,0.0,0.0,0.10000000149011612,4195703072,11,10
827477062,2,292,137,0,10024000,10024,137,0,0,0,16384,0,0,0,0.0,0.0,0.0,1.0,0.0,0.0,0.0,10.0,6.0,16.0,1000,1050,1100,1150,1200,1250,1300,1350,1300,1500,1500,1300,1300,1,1,1,1,1,1,1,1,0,0,0,0,stabilized_mix,0.0,0.0,0.0,0.0,0.0,0.0,0.0,0.0,0.0,0.0,0.0,0.0,0.0,0.0,0.0,0.0,0.0,0.0,0.0,0.0,0.0,0.0,0.0,0.0,0.0,0.0,0.0,0.0,0.0,0.0,0.0,0.0,0.0,0.0,0.0,0.0,0.0,0.0,0.0,0.0,0.10000000149011612,746294377,11,10
827477062,2,292,138,0,10028000,10028,138,0,0,0,16384,0,0,0,0.0,0.0,0.0,1.0,0.0,0.0,0.0,10.0,7.0,17.0,1000,1050,1100,1150,1200,1250,1300,1350,1300,1500,1500,1300,1300,1,1,1,1,1,1,1,1,0,0,0,0,stabilized_mix,0.0,0.0,0.0,0.0,0.0,0.0,0.0,0.0,0.0,0.0,0.0,0.0,0.0,0.0,0.0,0.0,0.0,0.0,0.0,0.0,0.0,0.0,0.0,0.0,0.0,0.0,0.0,0.0,0.0,0.0,0.0,0.0,0.0,0.0,0.0,0.0,0.0,0.0,0.0,0.0,0.10000000149011612,924294007,11,10
827477062,2,292,139,0,10032000,10032,139,0,0,0,16384,0,0,0,0.0,0.0,0.0,1.0,0.0,0.0,0.0,10.0,8.0,18.0,1000,1050,1100,1150,1200,1250,1300,1350,1300,1500,1500,1300,1300,1,1,1,1,1,1,1,1,0,0,0,0,stabilized_mix,0.0,0.0,0.0,0.0,0.0,0.0,0.0,0.0,0.0,0.0,0.0,0.0,0.0,0.0,0.0,0.0,0.0,0.0,0.0,0.0,0.0,0.0,0.0,0.0,0.0,0.0,0.0,0.0,0.0,0.0,0.0,0.0,0.0,0.0,0.0,0.0,0.0,0.0,0.0,0.0,0.10000000149011612,2017292466,11,10
827477062,2,292,140,0,10036000,10036,140,0,0,0,16384,0,0,0,0.0,0.0,0.0,1.0,0.0,0.0,0.0,10.0,9.0,19.0,1000,1050,1100,1150,1200,1250,1300,1350,1300,1500,1500,1300,1300,1,1,1,1,1,1,1,1,0,0,0,0,stabilized_mix,0.0,0.0,0.0,0.0,0.0,0.0,0.0,0.0,0.0,0.0,0.0,0.0,0.0,0.0,0.0,0.0,0.0,0.0,0.0,0.0,0.0,0.0,0.0,0.0,0.0,0.0,0.0,0.0,0.0,0.0,0.0,0.0,0.0,0.0,0.0,0.0,0.0,0.0,0.0,0.0,0.10000000149011612,3944750963,11,10
827477062,2,292,141,0,10040000,10040,141,0,0,0,16384,0,0,0,0.0,0.0,0.0,1.0,0.0,0.0,0.0,10.0,10.0,20.0,1000,1050,1100,1150,1200,1250,1300,1350,1300,1500,1500,1300,1300,1,1,1,1,1,1,1,1,0,0,0,0,stabilized_mix,0.0,0.0,0.0,0.0,0.0,0.0,0.0,0.0,0.0,0.0,0.0,0.0,0.0,0.0,0.0,0.0,0.0,0.0,0.0,0.0,0.0,0.0,0.0,0.0,0.0,0.0,0.0,0.0,0.0,0.0,0.0,0.0,0.0,0.0,0.0,0.0,0.0,0.0,0.0,0.0,0.10000000149011612,4294938755,11,10
827477062,2,292,142,0,10044000,10044,142,0,0,0,16384,0,0,0,0.0,0.0,0.0,1.0,0.0,0.0,0.0,10.0,11.0,21.0,1000,1050,1100,1150,1200,1250,1300,1350,1300,1500,1500,1300,1300,1,1,1,1,1,1,1,1,0,0,0,0,stabilized_mix,0.0,0.0,0.0,0.0,0.0,0.0,0.0,0.0,0.0,0.0,0.0,0.0,0.0,0.0,0.0,0.0,0.0,0.0,0.0,0.0,0.0,0.0,0.0,0.0,0.0,0.0,0.0,0.0,0.0,0.0,0.0,0.0,0.0,0.0,0.0,0.0,0.0,0.0,0.0,0.0,0.10000000149011612,4230281906,11,10
827477062,2,292,143,0,10048000,10048,143,0,0,0,16384,0,0,0,0.0,0.0,0.0,1.0,0.0,0.0,0.0,10.0,12.0,22.0,1000,1050,1100,1150,1200,1250,1300,1350,1300,1500,1500,1300,1300,1,1,1,1,1,1,1,1,0,0,0,0,stabilized_mix,0.0,0.0,0.0,0.0,0.0,0.0,0.0,0.0,0.0,0.0,0.0,0.0,0.0,0.0,0.0,0.0,0.0,0.0,0.0,0.0,0.0,0.0,0.0,0.0,0.0,0.0,0.0,0.0,0.0,0.0,0.0,0.0,0.0,0.0,0.0,0.0,0.0,0.0,0.0,0.0,0.10000000149011612,3053543831,11,10
827477062,2,292,144,0,11000000,11000,144,0,0,0,16384,0,0,0,0.0,0.0,0.0,1.0,0.0,0.0,0.0,11.0,0.0,11.0,1000,1050,1100,1150,1200,1250,1300,1350,1300,1500,1500,1300,1300,1,1,1,1,1,1,1,1,0,0,0,0,stabilized_mix,0.0,0.0,0.0,0.0,0.0,0.0,0.0,0.0,0.0,0.0,0.0,0.0,0.0,0.0,0.0,0.0,0.0,0.0,0.0,0.0,0.0,0.0,0.0,0.0,0.0,0.0,0.0,0.0,0.0,0.0,0.0,0.0,0.0,0.0,0.0,0.0,0.0,0.0,0.0,0.0,0.10000000149011612,1638081006,12,11
827477062,2,292,145,0,11004000,11004,145,0,0,0,16384,0,0,0,0.0,0.0,0.0,1.0,0.0,0.0,0.0,11.0,1.0,12.0,1000,1050,1100,1150,1200,1250,1300,1350,1300,1500,1500,1300,1300,1,1,1,1,1,1,1,1,0,0,0,0,stabilized_mix,0.0,0.0,0.0,0.0,0.0,0.0,0.0,0.0,0.0,0.0,0.0,0.0,0.0,0.0,0.0,0.0,0.0,0.0,0.0,0.0,0.0,0.0,0.0,0.0,0.0,0.0,0.0,0.0,0.0,0.0,0.0,0.0,0.0,0.0,0.0,0.0,0.0,0.0,0.0,0.0,0.10000000149011612,1248253214,12,11
827477062,2,292,146,0,11008000,11008,146,0,0,0,16384,0,0,0,0.0,0.0,0.0,1.0,0.0,0.0,0.0,11.0,2.0,13.0,1000,1050,1100,1150,1200,1250,1300,1350,1300,1500,1500,1300,1300,1,1,1,1,1,1,1,1,0,0,0,0,stabilized_mix,0.0,0.0,0.0,0.0,0.0,0.0,0.0,0.0,0.0,0.0,0.0,0.0,0.0,0.0,0.0,0.0,0.0,0.0,0.0,0.0,0.0,0.0,0.0,0.0,0.0,0.0,0.0,0.0,0.0,0.0,0.0,0.0,0.0,0.0,0.0,0.0,0.0,0.0,0.0,0.0,0.10000000149011612,1377218493,12,11
827477062,2,292,147,0,11012000,11012,147,0,0,0,16384,0,0,0,0.0,0.0,0.0,1.0,0.0,0.0,0.0,11.0,3.0,14.0,1000,1050,1100,1150,1200,1250,1300,1350,1300,1500,1500,1300,1300,1,1,1,1,1,1,1,1,0,0,0,0,stabilized_mix,0.0,0.0,0.0,0.0,0.0,0.0,0.0,0.0,0.0,0.0,0.0,0.0,0.0,0.0,0.0,0.0,0.0,0.0,0.0,0.0,0.0,0.0,0.0,0.0,0.0,0.0,0.0,0.0,0.0,0.0,0.0,0.0,0.0,0.0,0.0,0.0,0.0,0.0,0.0,0.0,0.10000000149011612,782839189,12,11
827477062,2,292,148,0,11016000,11016,148,0,0,0,16384,0,0,0,0.0,0.0,0.0,1.0,0.0,0.0,0.0,11.0,4.0,15.0,1000,1050,1100,1150,1200,1250,1300,1350,1300,1500,1500,1300,1300,1,1,1,1,1,1,1,1,0,0,0,0,stabilized_mix,0.0,0.0,0.0,0.0,0.0,0.0,0.0,0.0,0.0,0.0,0.0,0.0,0.0,0.0,0.0,0.0,0.0,0.0,0.0,0.0,0.0,0.0,0.0,0.0,0.0,0.0,0.0,0.0,0.0,0.0,0.0,0.0,0.0,0.0,0.0,0.0,0.0,0.0,0.0,0.0,0.10000000149011612,1523907380,12,11
827477062,2,292,149,0,11020000,11020,149,0,0,0,16384,0,0,0,0.0,0.0,0.0,1.0,0.0,0.0,0.0,11.0,5.0,16.0,1000,1050,1100,1150,1200,1250,1300,1350,1300,1500,1500,1300,1300,1,1,1,1,1,1,1,1,0,0,0,0,stabilized_mix,0.0,0.0,0.0,0.0,0.0,0.0,0.0,0.0,0.0,0.0,0.0,0.0,0.0,0.0,0.0,0.0,0.0,0.0,0.0,0.0,0.0,0.0,0.0,0.0,0.0,0.0,0.0,0.0,0.0,0.0,0.0,0.0,0.0,0.0,0.0,0.0,0.0,0.0,0.0,0.0,0.10000000149011612,161895646,12,11
827477062,2,292,150,0,11024000,11024,150,0,0,0,16384,0,0,0,0.0,0.0,0.0,1.0,0.0,0.0,0.0,11.0,6.0,17.0,1000,1050,1100,1150,1200,1250,1300,1350,1300,1500,1500,1300,1300,1,1,1,1,1,1,1,1,0,0,0,0,stabilized_mix,0.0,0.0,0.0,0.0,0.0,0.0,0.0,0.0,0.0,0.0,0.0,0.0,0.0,0.0,0.0,0.0,0.0,0.0,0.0,0.0,0.0,0.0,0.0,0.0,0.0,0.0,0.0,0.0,0.0,0.0,0.0,0.0,0.0,0.0,0.0,0.0,0.0,0.0,0.0,0.0,0.10000000149011612,2230061593,12,11
827477062,2,292,151,0,11028000,11028,151,0,0,0,16384,0,0,0,0.0,0.0,0.0,1.0,0.0,0.0,0.0,11.0,7.0,18.0,1000,1050,1100,1150,1200,1250,1300,1350,1300,1500,1500,1300,1300,1,1,1,1,1,1,1,1,0,0,0,0,stabilized_mix,0.0,0.0,0.0,0.0,0.0,0.0,0.0,0.0,0.0,0.0,0.0,0.0,0.0,0.0,0.0,0.0,0.0,0.0,0.0,0.0,0.0,0.0,0.0,0.0,0.0,0.0,0.0,0.0,0.0,0.0,0.0,0.0,0.0,0.0,0.0,0.0,0.0,0.0,0.0,0.0,0.10000000149011612,3636023314,12,11
827477062,2,292,152,0,11032000,11032,152,0,0,0,16384,0,0,0,0.0,0.0,0.0,1.0,0.0,0.0,0.0,11.0,8.0,19.0,1000,1050,1100,1150,1200,1250,1300,1350,1300,1500,1500,1300,1300,1,1,1,1,1,1,1,1,0,0,0,0,stabilized_mix,0.0,0.0,0.0,0.0,0.0,0.0,0.0,0.0,0.0,0.0,0.0,0.0,0.0,0.0,0.0,0.0,0.0,0.0,0.0,0.0,0.0,0.0,0.0,0.0,0.0,0.0,0.0,0.0,0.0,0.0,0.0,0.0,0.0,0.0,0.0,0.0,0.0,0.0,0.0,0.0,0.10000000149011612,3734384497,12,11
827477062,2,292,153,0,11036000,11036,153,0,0,0,16384,0,0,0,0.0,0.0,0.0,1.0,0.0,0.0,0.0,11.0,9.0,20.0,1000,1050,1100,1150,1200,1250,1300,1350,1300,1500,1500,1300,1300,1,1,1,1,1,1,1,1,0,0,0,0,stabilized_mix,0.0,0.0,0.0,0.0,0.0,0.0,0.0,0.0,0.0,0.0,0.0,0.0,0.0,0.0,0.0,0.0,0.0,0.0,0.0,0.0,0.0,0.0,0.0,0.0,0.0,0.0,0.0,0.0,0.0,0.0,0.0,0.0,0.0,0.0,0.0,0.0,0.0,0.0,0.0,0.0,0.10000000149011612,1354582491,12,11
827477062,2,292,154,0,11040000,11040,154,0,0,0,16384,0,0,0,0.0,0.0,0.0,1.0,0.0,0.0,0.0,11.0,10.0,21.0,1000,1050,1100,1150,1200,1250,1300,1350,1300,1500,1500,1300,1300,1,1,1,1,1,1,1,1,0,0,0,0,stabilized_mix,0.0,0.0,0.0,0.0,0.0,0.0,0.0,0.0,0.0,0.0,0.0,0.0,0.0,0.0,0.0,0.0,0.0,0.0,0.0,0.0,0.0,0.0,0.0,0.0,0.0,0.0,0.0,0.0,0.0,0.0,0.0,0.0,0.0,0.0,0.0,0.0,0.0,0.0,0.0,0.0,0.10000000149011612,1008808873,12,11
827477062,2,292,155,0,11044000,11044,155,0,0,0,16384,0,0,0,0.0,0.0,0.0,1.0,0.0,0.0,0.0,11.0,11.0,22.0,1000,1050,1100,1150,1200,1250,1300,1350,1300,1500,1500,1300,1300,1,1,1,1,1,1,1,1,0,0,0,0,stabilized_mix,0.0,0.0,0.0,0.0,0.0,0.0,0.0,0.0,0.0,0.0,0.0,0.0,0.0,0.0,0.0,0.0,0.0,0.0,0.0,0.0,0.0,0.0,0.0,0.0,0.0,0.0,0.0,0.0,0.0,0.0,0.0,0.0,0.0,0.0,0.0,0.0,0.0,0.0,0.0,0.0,0.10000000149011612,1371795723,12,11
827477062,2,292,156,0,11048000,11048,156,0,0,0,16384,0,0,0,0.0,0.0,0.0,1.0,0.0,0.0,0.0,11.0,12.0,23.0,1000,1050,1100,1150,1200,1250,1300,1350,1300,1500,1500,1300,1300,1,1,1,1,1,1,1,1,0,0,0,0,stabilized_mix,0.0,0.0,0.0,0.0,0.0,0.0,0.0,0.0,0.0,0.0,0.0,0.0,0.0,0.0,0.0,0.0,0.0,0.0,0.0,0.0,0.0,0.0,0.0,0.0,0.0,0.0,0.0,0.0,0.0,0.0,0.0,0.0,0.0,0.0,0.0,0.0,0.0,0.0,0.0,0.0,0.10000000149011612,2550663002,12,11
827477062,2,292,157,0,12000000,12000,157,0,0,0,16384,0,0,0,0.0,0.0,0.0,1.0,0.0,0.0,0.0,12.0,0.0,12.0,1000,1050,1100,1150,1200,1250,1300,1350,1300,1500,1500,1300,1300,1,1,1,1,1,1,1,1,0,0,0,0,stabilized_mix,0.0,0.0,0.0,0.0,0.0,0.0,0.0,0.0,0.0,0.0,0.0,0.0,0.0,0.0,0.0,0.0,0.0,0.0,0.0,0.0,0.0,0.0,0.0,0.0,0.0,0.0,0.0,0.0,0.0,0.0,0.0,0.0,0.0,0.0,0.0,0.0,0.0,0.0,0.0,0.0,0.10000000149011612,1998661190,13,12
827477062,2,292,158,0,12004000,12004,158,0,0,0,16384,0,0,0,0.0,0.0,0.0,1.0,0.0,0.0,0.0,12.0,1.0,13.0,1000,1050,1100,1150,1200,1250,1300,1350,1300,1500,1500,1300,1300,1,1,1,1,1,1,1,1,0,0,0,0,stabilized_mix,0.0,0.0,0.0,0.0,0.0,0.0,0.0,0.0,0.0,0.0,0.0,0.0,0.0,0.0,0.0,0.0,0.0,0.0,0.0,0.0,0.0,0.0,0.0,0.0,0.0,0.0,0.0,0.0,0.0,0.0,0.0,0.0,0.0,0.0,0.0,0.0,0.0,0.0,0.0,0.0,0.10000000149011612,245484032,13,12
827477062,2,292,159,0,12008000,12008,159,0,0,0,16384,0,0,0,0.0,0.0,0.0,1.0,0.0,0.0,0.0,12.0,2.0,14.0,1000,1050,1100,1150,1200,1250,1300,1350,1300,1500,1500,1300,1300,1,1,1,1,1,1,1,1,0,0,0,0,stabilized_mix,0.0,0.0,0.0,0.0,0.0,0.0,0.0,0.0,0.0,0.0,0.0,0.0,0.0,0.0,0.0,0.0,0.0,0.0,0.0,0.0,0.0,0.0,0.0,0.0,0.0,0.0,0.0,0.0,0.0,0.0,0.0,0.0,0.0,0.0,0.0,0.0,0.0,0.0,0.0,0.0,0.10000000149011612,2476343087,13,12
827477062,2,292,160,0,12012000,12012,160,0,0,0,16384,0,0,0,0.0,0.0,0.0,1.0,0.0,0.0,0.0,12.0,3.0,15.0,1000,1050,1100,1150,1200,1250,1300,1350,1300,1500,1500,1300,1300,1,1,1,1,1,1,1,1,0,0,0,0,stabilized_mix,0.0,0.0,0.0,0.0,0.0,0.0,0.0,0.0,0.0,0.0,0.0,0.0,0.0,0.0,0.0,0.0,0.0,0.0,0.0,0.0,0.0,0.0,0.0,0.0,0.0,0.0,0.0,0.0,0.0,0.0,0.0,0.0,0.0,0.0,0.0,0.0,0.0,0.0,0.0,0.0,0.10000000149011612,3961740690,13,12
827477062,2,292,161,0,12016000,12016,161,0,0,0,16384,0,0,0,0.0,0.0,0.0,1.0,0.0,0.0,0.0,12.0,4.0,16.0,1000,1050,1100,1150,1200,1250,1300,1350,1300,1500,1500,1300,1300,1,1,1,1,1,1,1,1,0,0,0,0,stabilized_mix,0.0,0.0,0.0,0.0,0.0,0.0,0.0,0.0,0.0,0.0,0.0,0.0,0.0,0.0,0.0,0.0,0.0,0.0,0.0,0.0,0.0,0.0,0.0,0.0,0.0,0.0,0.0,0.0,0.0,0.0,0.0,0.0,0.0,0.0,0.0,0.0,0.0,0.0,0.0,0.0,0.10000000149011612,3358279957,13,12
827477062,2,292,162,0,12020000,12020,162,0,0,0,16384,0,0,0,0.0,0.0,0.0,1.0,0.0,0.0,0.0,12.0,5.0,17.0,1000,1050,1100,1150,1200,1250,1300,1350,1300,1500,1500,1300,1300,1,1,1,1,1,1,1,1,0,0,0,0,stabilized_mix,0.0,0.0,0.0,0.0,0.0,0.0,0.0,0.0,0.0,0.0,0.0,0.0,0.0,0.0,0.0,0.0,0.0,0.0,0.0,0.0,0.0,0.0,0.0,0.0,0.0,0.0,0.0,0.0,0.0,0.0,0.0,0.0,0.0,0.0,0.0,0.0,0.0,0.0,0.0,0.0,0.10000000149011612,1906280687,13,12
827477062,2,292,163,0,12024000,12024,163,0,0,0,16384,0,0,0,0.0,0.0,0.0,1.0,0.0,0.0,0.0,12.0,6.0,18.0,1000,1050,1100,1150,1200,1250,1300,1350,1300,1500,1500,1300,1300,1,1,1,1,1,1,1,1,0,0,0,0,stabilized_mix,0.0,0.0,0.0,0.0,0.0,0.0,0.0,0.0,0.0,0.0,0.0,0.0,0.0,0.0,0.0,0.0,0.0,0.0,0.0,0.0,0.0,0.0,0.0,0.0,0.0,0.0,0.0,0.0,0.0,0.0,0.0,0.0,0.0,0.0,0.0,0.0,0.0,0.0,0.0,0.0,0.10000000149011612,4042639696,13,12
827477062,2,292,164,0,12028000,12028,164,0,0,0,16384,0,0,0,0.0,0.0,0.0,1.0,0.0,0.0,0.0,12.0,7.0,19.0,1000,1050,1100,1150,1200,1250,1300,1350,1300,1500,1500,1300,1300,1,1,1,1,1,1,1,1,0,0,0,0,stabilized_mix,0.0,0.0,0.0,0.0,0.0,0.0,0.0,0.0,0.0,0.0,0.0,0.0,0.0,0.0,0.0,0.0,0.0,0.0,0.0,0.0,0.0,0.0,0.0,0.0,0.0,0.0,0.0,0.0,0.0,0.0,0.0,0.0,0.0,0.0,0.0,0.0,0.0,0.0,0.0,0.0,0.10000000149011612,1774309236,13,12
827477062,2,292,165,0,12032000,12032,165,0,0,0,16384,0,0,0,0.0,0.0,0.0,1.0,0.0,0.0,0.0,12.0,8.0,20.0,1000,1050,1100,1150,1200,1250,1300,1350,1300,1500,1500,1300,1300,1,1,1,1,1,1,1,1,0,0,0,0,stabilized_mix,0.0,0.0,0.0,0.0,0.0,0.0,0.0,0.0,0.0,0.0,0.0,0.0,0.0,0.0,0.0,0.0,0.0,0.0,0.0,0.0,0.0,0.0,0.0,0.0,0.0,0.0,0.0,0.0,0.0,0.0,0.0,0.0,0.0,0.0,0.0,0.0,0.0,0.0,0.0,0.0,0.10000000149011612,4164300715,13,12
827477062,2,292,166,0,12036000,12036,166,0,0,0,16384,0,0,0,0.0,0.0,0.0,1.0,0.0,0.0,0.0,12.0,9.0,21.0,1000,1050,1100,1150,1200,1250,1300,1350,1300,1500,1500,1300,1300,1,1,1,1,1,1,1,1,0,0,0,0,stabilized_mix,0.0,0.0,0.0,0.0,0.0,0.0,0.0,0.0,0.0,0.0,0.0,0.0,0.0,0.0,0.0,0.0,0.0,0.0,0.0,0.0,0.0,0.0,0.0,0.0,0.0,0.0,0.0,0.0,0.0,0.0,0.0,0.0,0.0,0.0,0.0,0.0,0.0,0.0,0.0,0.0,0.10000000149011612,4186004759,13,12
827477062,2,292,167,0,12040000,12040,167,0,0,0,16384,0,0,0,0.0,0.0,0.0,1.0,0.0,0.0,0.0,12.0,10.0,22.0,1000,1050,1100,1150,1200,1250,1300,1350,1300,1500,1500,1300,1300,1,1,1,1,1,1,1,1,0,0,0,0,stabilized_mix,0.0,0.0,0.0,0.0,0.0,0.0,0.0,0.0,0.0,0.0,0.0,0.0,0.0,0.0,0.0,0.0,0.0,0.0,0.0,0.0,0.0,0.0,0.0,0.0,0.0,0.0,0.0,0.0,0.0,0.0,0.0,0.0,0.0,0.0,0.0,0.0,0.0,0.0,0.0,0.0,0.10000000149011612,3874674134,13,12
827477062,2,292,168,0,12044000,12044,168,0,0,0,16384,0,0,0,0.0,0.0,0.0,1.0,0.0,0.0,0.0,12.0,11.0,23.0,1000,1050,1100,1150,1200,1250,1300,1350,1300,1500,1500,1300,1300,1,1,1,1,1,1,1,1,0,0,0,0,stabilized_mix,0.0,0.0,0.0,0.0,0.0,0.0,0.0,0.0,0.0,0.0,0.0,0.0,0.0,0.0,0.0,0.0,0.0,0.0,0.0,0.0,0.0,0.0,0.0,0.0,0.0,0.0,0.0,0.0,0.0,0.0,0.0,0.0,0.0,0.0,0.0,0.0,0.0,0.0,0.0,0.0,0.10000000149011612,80381140,13,12
827477062,2,292,169,0,12048000,12048,169,0,0,0,16384,0,0,0,0.0,0.0,0.0,1.0,0.0,0.0,0.0,12.0,12.0,24.0,1000,1050,1100,1150,1200,1250,1300,1350,1300,1500,1500,1300,1300,1,1,1,1,1,1,1,1,0,0,0,0,stabilized_mix,0.0,0.0,0.0,0.0,0.0,0.0,0.0,0.0,0.0,0.0,0.0,0.0,0.0,0.0,0.0,0.0,0.0,0.0,0.0,0.0,0.0,0.0,0.0,0.0,0.0,0.0,0.0,0.0,0.0,0.0,0.0,0.0,0.0,0.0,0.0,0.0,0.0,0.0,0.0,0.0,0.10000000149011612,3528139007,13,12
827477062,2,292,170,0,13000000,13000,170,0,0,0,16384,0,0,0,0.0,0.0,0.0,1.0,0.0,0.0,0.0,13.0,0.0,13.0,1000,1050,1100,1150,1200,1250,1300,1350,1300,1500,1500,1300,1300,1,1,1,1,1,1,1,1,0,0,0,0,stabilized_mix,0.0,0.0,0.0,0.0,0.0,0.0,0.0,0.0,0.0,0.0,0.0,0.0,0.0,0.0,0.0,0.0,0.0,0.0,0.0,0.0,0.0,0.0,0.0,0.0,0.0,0.0,0.0,0.0,0.0,0.0,0.0,0.0,0.0,0.0,0.0,0.0,0.0,0.0,0.0,0.0,0.10000000149011612,2195649637,14,13
827477062,2,292,171,0,13004000,13004,171,0,0,0,16384,0,0,0,0.0,0.0,0.0,1.0,0.0,0.0,0.0,13.0,1.0,14.0,1000,1050,1100,1150,1200,1250,1300,1350,1300,1500,1500,1300,1300,1,1,1,1,1,1,1,1,0,0,0,0,stabilized_mix,0.0,0.0,0.0,0.0,0.0,0.0,0.0,0.0,0.0,0.0,0.0,0.0,0.0,0.0,0.0,0.0,0.0,0.0,0.0,0.0,0.0,0.0,0.0,0.0,0.0,0.0,0.0,0.0,0.0,0.0,0.0,0.0,0.0,0.0,0.0,0.0,0.0,0.0,0.0,0.0,0.10000000149011612,444972570,14,13
827477062,2,292,172,0,13008000,13008,172,0,0,0,16384,0,0,0,0.0,0.0,0.0,1.0,0.0,0.0,0.0,13.0,2.0,15.0,1000,1050,1100,1150,1200,1250,1300,1350,1300,1500,1500,1300,1300,1,1,1,1,1,1,1,1,0,0,0,0,stabilized_mix,0.0,0.0,0.0,0.0,0.0,0.0,0.0,0.0,0.0,0.0,0.0,0.0,0.0,0.0,0.0,0.0,0.0,0.0,0.0,0.0,0.0,0.0,0.0,0.0,0.0,0.0,0.0,0.0,0.0,0.0,0.0,0.0,0.0,0.0,0.0,0.0,0.0,0.0,0.0,0.0,0.10000000149011612,2094808110,14,13
827477062,2,292,173,0,13012000,13012,173,0,0,0,16384,0,0,0,0.0,0.0,0.0,1.0,0.0,0.0,0.0,13.0,3.0,16.0,1000,1050,1100,1150,1200,1250,1300,1350,1300,1500,1500,1300,1300,1,1,1,1,1,1,1,1,0,0,0,0,stabilized_mix,0.0,0.0,0.0,0.0,0.0,0.0,0.0,0.0,0.0,0.0,0.0,0.0,0.0,0.0,0.0,0.0,0.0,0.0,0.0,0.0,0.0,0.0,0.0,0.0,0.0,0.0,0.0,0.0,0.0,0.0,0.0,0.0,0.0,0.0,0.0,0.0,0.0,0.0,0.0,0.0,0.10000000149011612,3147707231,14,13
827477062,2,292,174,0,13016000,13016,174,0,0,0,16384,0,0,0,0.0,0.0,0.0,1.0,0.0,0.0,0.0,13.0,4.0,17.0,1000,1050,1100,1150,1200,1250,1300,1350,1300,1500,1500,1300,1300,1,1,1,1,1,1,1,1,0,0,0,0,stabilized_mix,0.0,0.0,0.0,0.0,0.0,0.0,0.0,0.0,0.0,0.0,0.0,0.0,0.0,0.0,0.0,0.0,0.0,0.0,0.0,0.0,0.0,0.0,0.0,0.0,0.0,0.0,0.0,0.0,0.0,0.0,0.0,0.0,0.0,0.0,0.0,0.0,0.0,0.0,0.0,0.0,0.10000000149011612,905141142,14,13
827477062,2,292,175,0,13020000,13020,175,0,0,0,16384,0,0,0,0.0,0.0,0.0,1.0,0.0,0.0,0.0,13.0,5.0,18.0,1000,1050,1100,1150,1200,1250,1300,1350,1300,1500,1500,1300,1300,1,1,1,1,1,1,1,1,0,0,0,0,stabilized_mix,0.0,0.0,0.0,0.0,0.0,0.0,0.0,0.0,0.0,0.0,0.0,0.0,0.0,0.0,0.0,0.0,0.0,0.0,0.0,0.0,0.0,0.0,0.0,0.0,0.0,0.0,0.0,0.0,0.0,0.0,0.0,0.0,0.0,0.0,0.0,0.0,0.0,0.0,0.0,0.0,0.10000000149011612,830824586,14,13
827477062,2,292,176,0,13024000,13024,176,0,0,0,16384,0,0,0,0.0,0.0,0.0,1.0,0.0,0.0,0.0,13.0,6.0,19.0,1000,1050,1100,1150,1200,1250,1300,1350,1300,1500,1500,1300,1300,1,1,1,1,1,1,1,1,0,0,0,0,stabilized_mix,0.0,0.0,0.0,0.0,0.0,0.0,0.0,0.0,0.0,0.0,0.0,0.0,0.0,0.0,0.0,0.0,0.0,0.0,0.0,0.0,0.0,0.0,0.0,0.0,0.0,0.0,0.0,0.0,0.0,0.0,0.0,0.0,0.0,0.0,0.0,0.0,0.0,0.0,0.0,0.0,0.10000000149011612,3079960491,14,13
827477062,2,292,177,0,13028000,13028,177,0,0,0,16384,0,0,0,0.0,0.0,0.0,1.0,0.0,0.0,0.0,13.0,7.0,20.0,1000,1050,1100,1150,1200,1250,1300,1350,1300,1500,1500,1300,1300,1,1,1,1,1,1,1,1,0,0,0,0,stabilized_mix,0.0,0.0,0.0,0.0,0.0,0.0,0.0,0.0,0.0,0.0,0.0,0.0,0.0,0.0,0.0,0.0,0.0,0.0,0.0,0.0,0.0,0.0,0.0,0.0,0.0,0.0,0.0,0.0,0.0,0.0,0.0,0.0,0.0,0.0,0.0,0.0,0.0,0.0,0.0,0.0,0.10000000149011612,3765250705,14,13
827477062,2,292,178,0,13032000,13032,178,0,0,0,16384,0,0,0,0.0,0.0,0.0,1.0,0.0,0.0,0.0,13.0,8.0,21.0,1000,1050,1100,1150,1200,1250,1300,1350,1300,1500,1500,1300,1300,1,1,1,1,1,1,1,1,0,0,0,0,stabilized_mix,0.0,0.0,0.0,0.0,0.0,0.0,0.0,0.0,0.0,0.0,0.0,0.0,0.0,0.0,0.0,0.0,0.0,0.0,0.0,0.0,0.0,0.0,0.0,0.0,0.0,0.0,0.0,0.0,0.0,0.0,0.0,0.0,0.0,0.0,0.0,0.0,0.0,0.0,0.0,0.0,0.10000000149011612,3235532407,14,13
827477062,2,292,179,0,13036000,13036,179,0,0,0,16384,0,0,0,0.0,0.0,0.0,1.0,0.0,0.0,0.0,13.0,9.0,22.0,1000,1050,1100,1150,1200,1250,1300,1350,1300,1500,1500,1300,1300,1,1,1,1,1,1,1,1,0,0,0,0,stabilized_mix,0.0,0.0,0.0,0.0,0.0,0.0,0.0,0.0,0.0,0.0,0.0,0.0,0.0,0.0,0.0,0.0,0.0,0.0,0.0,0.0,0.0,0.0,0.0,0.0,0.0,0.0,0.0,0.0,0.0,0.0,0.0,0.0,0.0,0.0,0.0,0.0,0.0,0.0,0.0,0.0,0.10000000149011612,2183532378,14,13
827477062,2,292,180,0,13040000,13040,180,0,0,0,16384,0,0,0,0.0,0.0,0.0,1.0,0.0,0.0,0.0,13.0,10.0,23.0,1000,1050,1100,1150,1200,1250,1300,1350,1300,1500,1500,1300,1300,1,1,1,1,1,1,1,1,0,0,0,0,stabilized_mix,0.0,0.0,0.0,0.0,0.0,0.0,0.0,0.0,0.0,0.0,0.0,0.0,0.0,0.0,0.0,0.0,0.0,0.0,0.0,0.0,0.0,0.0,0.0,0.0,0.0,0.0,0.0,0.0,0.0,0.0,0.0,0.0,0.0,0.0,0.0,0.0,0.0,0.0,0.0,0.0,0.10000000149011612,976055391,14,13
827477062,2,292,181,0,13044000,13044,181,0,0,0,16384,0,0,0,0.0,0.0,0.0,1.0,0.0,0.0,0.0,13.0,11.0,24.0,1000,1050,1100,1150,1200,1250,1300,1350,1300,1500,1500,1300,1300,1,1,1,1,1,1,1,1,0,0,0,0,stabilized_mix,0.0,0.0,0.0,0.0,0.0,0.0,0.0,0.0,0.0,0.0,0.0,0.0,0.0,0.0,0.0,0.0,0.0,0.0,0.0,0.0,0.0,0.0,0.0,0.0,0.0,0.0,0.0,0.0,0.0,0.0,0.0,0.0,0.0,0.0,0.0,0.0,0.0,0.0,0.0,0.0,0.10000000149011612,935068933,14,13
827477062,2,292,182,0,13048000,13048,182,0,0,0,16384,0,0,0,0.0,0.0,0.0,1.0,0.0,0.0,0.0,13.0,12.0,25.0,1000,1050,1100,1150,1200,1250,1300,1350,1300,1500,1500,1300,1300,1,1,1,1,1,1,1,1,0,0,0,0,stabilized_mix,0.0,0.0,0.0,0.0,0.0,0.0,0.0,0.0,0.0,0.0,0.0,0.0,0.0,0.0,0.0,0.0,0.0,0.0,0.0,0.0,0.0,0.0,0.0,0.0,0.0,0.0,0.0,0.0,0.0,0.0,0.0,0.0,0.0,0.0,0.0,0.0,0.0,0.0,0.0,0.0,0.10000000149011612,1429145576,14,13
827477062,2,292,183,0,14000000,14000,183,0,0,0,16384,0,0,0,0.0,0.0,0.0,1.0,0.0,0.0,0.0,14.0,0.0,14.0,1000,1050,1100,1150,1200,1250,1300,1350,1300,1500,1500,1300,1300,1,1,1,1,1,1,1,1,0,0,0,0,stabilized_mix,0.0,0.0,0.0,0.0,0.0,0.0,0.0,0.0,0.0,0.0,0.0,0.0,0.0,0.0,0.0,0.0,0.0,0.0,0.0,0.0,0.0,0.0,0.0,0.0,0.0,0.0,0.0,0.0,0.0,0.0,0.0,0.0,0.0,0.0,0.0,0.0,0.0,0.0,0.0,0.0,0.10000000149011612,2488264300,15,14
827477062,2,292,184,0,14004000,14004,184,0,0,0,16384,0,0,0,0.0,0.0,0.0,1.0,0.0,0.0,0.0,14.0,1.0,15.0,1000,1050,1100,1150,1200,1250,1300,1350,1300,1500,1500,1300,1300,1,1,1,1,1,1,1,1,0,0,0,0,stabilized_mix,0.0,0.0,0.0,0.0,0.0,0.0,0.0,0.0,0.0,0.0,0.0,0.0,0.0,0.0,0.0,0.0,0.0,0.0,0.0,0.0,0.0,0.0,0.0,0.0,0.0,0.0,0.0,0.0,0.0,0.0,0.0,0.0,0.0,0.0,0.0,0.0,0.0,0.0,0.0,0.0,0.10000000149011612,204222745,15,14
827477062,2,292,185,0,14008000,14008,185,0,0,0,16384,0,0,0,0.0,0.0,0.0,1.0,0.0,0.0,0.0,14.0,2.0,16.0,1000,1050,1100,1150,1200,1250,1300,1350,1300,1500,1500,1300,1300,1,1,1,1,1,1,1,1,0,0,0,0,stabilized_mix,0.0,0.0,0.0,0.0,0.0,0.0,0.0,0.0,0.0,0.0,0.0,0.0,0.0,0.0,0.0,0.0,0.0,0.0,0.0,0.0,0.0,0.0,0.0,0.0,0.0,0.0,0.0,0.0,0.0,0.0,0.0,0.0,0.0,0.0,0.0,0.0,0.0,0.0,0.0,0.0,0.10000000149011612,1505616208,15,14
827477062,2,292,186,0,14012000,14012,186,0,0,0,16384,0,0,0,0.0,0.0,0.0,1.0,0.0,0.0,0.0,14.0,3.0,17.0,1000,1050,1100,1150,1200,1250,1300,1350,1300,1500,1500,1300,1300,1,1,1,1,1,1,1,1,0,0,0,0,stabilized_mix,0.0,0.0,0.0,0.0,0.0,0.0,0.0,0.0,0.0,0.0,0.0,0.0,0.0,0.0,0.0,0.0,0.0,0.0,0.0,0.0,0.0,0.0,0.0,0.0,0.0,0.0,0.0,0.0,0.0,0.0,0.0,0.0,0.0,0.0,0.0,0.0,0.0,0.0,0.0,0.0,0.10000000149011612,2814562884,15,14
827477062,2,292,187,0,14016000,14016,187,0,0,0,16384,0,0,0,0.0,0.0,0.0,1.0,0.0,0.0,0.0,14.0,4.0,18.0,1000,1050,1100,1150,1200,1250,1300,1350,1300,1500,1500,1300,1300,1,1,1,1,1,1,1,1,0,0,0,0,stabilized_mix,0.0,0.0,0.0,0.0,0.0,0.0,0.0,0.0,0.0,0.0,0.0,0.0,0.0,0.0,0.0,0.0,0.0,0.0,0.0,0.0,0.0,0.0,0.0,0.0,0.0,0.0,0.0,0.0,0.0,0.0,0.0,0.0,0.0,0.0,0.0,0.0,0.0,0.0,0.0,0.0,0.10000000149011612,2481276126,15,14
827477062,2,292,188,0,14020000,14020,188,0,0,0,16384,0,0,0,0.0,0.0,0.0,1.0,0.0,0.0,0.0,14.0,5.0,19.0,1000,1050,1100,1150,1200,1250,1300,1350,1300,1500,1500,1300,1300,1,1,1,1,1,1,1,1,0,0,0,0,stabilized_mix,0.0,0.0,0.0,0.0,0.0,0.0,0.0,0.0,0.0,0.0,0.0,0.0,0.0,0.0,0.0,0.0,0.0,0.0,0.0,0.0,0.0,0.0,0.0,0.0,0.0,0.0,0.0,0.0,0.0,0.0,0.0,0.0,0.0,0.0,0.0,0.0,0.0,0.0,0.0,0.0,0.10000000149011612,1181897006,15,14
827477062,2,292,189,0,14024000,14024,189,0,0,0,16384,0,0,0,0.0,0.0,0.0,1.0,0.0,0.0,0.0,14.0,6.0,20.0,1000,1050,1100,1150,1200,1250,1300,1350,1300,1500,1500,1300,1300,1,1,1,1,1,1,1,1,0,0,0,0,stabilized_mix,0.0,0.0,0.0,0.0,0.0,0.0,0.0,0.0,0.0,0.0,0.0,0.0,0.0,0.0,0.0,0.0,0.0,0.0,0.0,0.0,0.0,0.0,0.0,0.0,0.0,0.0,0.0,0.0,0.0,0.0,0.0,0.0,0.0,0.0,0.0,0.0,0.0,0.0,0.0,0.0,0.10000000149011612,3434354592,15,14
827477062,2,292,190,0,14028000,14028,190,0,0,0,16384,0,0,0,0.0,0.0,0.0,1.0,0.0,0.0,0.0,14.0,7.0,21.0,1000,1050,1100,1150,1200,1250,1300,1350,1300,1500,1500,1300,1300,1,1,1,1,1,1,1,1,0,0,0,0,stabilized_mix,0.0,0.0,0.0,0.0,0.0,0.0,0.0,0.0,0.0,0.0,0.0,0.0,0.0,0.0,0.0,0.0,0.0,0.0,0.0,0.0,0.0,0.0,0.0,0.0,0.0,0.0,0.0,0.0,0.0,0.0,0.0,0.0,0.0,0.0,0.0,0.0,0.0,0.0,0.0,0.0,0.10000000149011612,3920389470,15,14
827477062,2,292,191,0,14032000,14032,191,0,0,0,16384,0,0,0,0.0,0.0,0.0,1.0,0.0,0.0,0.0,14.0,8.0,22.0,1000,1050,1100,1150,1200,1250,1300,1350,1300,1500,1500,1300,1300,1,1,1,1,1,1,1,1,0,0,0,0,stabilized_mix,0.0,0.0,0.0,0.0,0.0,0.0,0.0,0.0,0.0,0.0,0.0,0.0,0.0,0.0,0.0,0.0,0.0,0.0,0.0,0.0,0.0,0.0,0.0,0.0,0.0,0.0,0.0,0.0,0.0,0.0,0.0,0.0,0.0,0.0,0.0,0.0,0.0,0.0,0.0,0.0,0.10000000149011612,2793836187,15,14
827477062,2,292,192,0,14036000,14036,192,0,0,0,16384,0,0,0,0.0,0.0,0.0,1.0,0.0,0.0,0.0,14.0,9.0,23.0,1000,1050,1100,1150,1200,1250,1300,1350,1300,1500,1500,1300,1300,1,1,1,1,1,1,1,1,0,0,0,0,stabilized_mix,0.0,0.0,0.0,0.0,0.0,0.0,0.0,0.0,0.0,0.0,0.0,0.0,0.0,0.0,0.0,0.0,0.0,0.0,0.0,0.0,0.0,0.0,0.0,0.0,0.0,0.0,0.0,0.0,0.0,0.0,0.0,0.0,0.0,0.0,0.0,0.0,0.0,0.0,0.0,0.0,0.10000000149011612,595918605,15,14
827477062,2,292,193,0,14040000,14040,193,0,0,0,16384,0,0,0,0.0,0.0,0.0,1.0,0.0,0.0,0.0,14.0,10.0,24.0,1000,1050,1100,1150,1200,1250,1300,1350,1300,1500,1500,1300,1300,1,1,1,1,1,1,1,1,0,0,0,0,stabilized_mix,0.0,0.0,0.0,0.0,0.0,0.0,0.0,0.0,0.0,0.0,0.0,0.0,0.0,0.0,0.0,0.0,0.0,0.0,0.0,0.0,0.0,0.0,0.0,0.0,0.0,0.0,0.0,0.0,0.0,0.0,0.0,0.0,0.0,0.0,0.0,0.0,0.0,0.0,0.0,0.0,0.10000000149011612,1971599794,15,14
827477062,2,292,194,0,14044000,14044,194,0,0,0,16384,0,0,0,0.0,0.0,0.0,1.0,0.0,0.0,0.0,14.0,11.0,25.0,1000,1050,1100,1150,1200,1250,1300,1350,1300,1500,1500,1300,1300,1,1,1,1,1,1,1,1,0,0,0,0,stabilized_mix,0.0,0.0,0.0,0.0,0.0,0.0,0.0,0.0,0.0,0.0,0.0,0.0,0.0,0.0,0.0,0.0,0.0,0.0,0.0,0.0,0.0,0.0,0.0,0.0,0.0,0.0,0.0,0.0,0.0,0.0,0.0,0.0,0.0,0.0,0.0,0.0,0.0,0.0,0.0,0.0,0.10000000149011612,1985958787,15,14
827477062,2,292,195,0,14048000,14048,195,0,0,0,16384,0,0,0,0.0,0.0,0.0,1.0,0.0,0.0,0.0,14.0,12.0,26.0,1000,1050,1100,1150,1200,1250,1300,1350,1300,1500,1500,1300,1300,1,1,1,1,1,1,1,1,0,0,0,0,stabilized_mix,0.0,0.0,0.0,0.0,0.0,0.0,0.0,0.0,0.0,0.0,0.0,0.0,0.0,0.0,0.0,0.0,0.0,0.0,0.0,0.0,0.0,0.0,0.0,0.0,0.0,0.0,0.0,0.0,0.0,0.0,0.0,0.0,0.0,0.0,0.0,0.0,0.0,0.0,0.0,0.0,0.10000000149011612,77476742,15,14
827477062,2,292,1,0,73812735,73813,70695,458,-77,8031,-17,12,41,-6,28.578125,0.005287870764732361,-0.0016992585733532906,0.9933875203132629,19.03878402709961,-19.32368278503418,20.164112091064453,-6.982676029205322,-6.204401016235352,-106.22732543945312,1500,1500,1205,1500,2000,1000,1000,1000,1272,1495,1824,1100,1527,1,1,1,1,1,1,1,0,1,1,0,0,stabilized_mix,-0.0008031367906369269,-0.001219734433107078,0.0014569474151358008,-8.087587275440455e-07,-1.2282725947443396e-06,1.4667766663478687e-06,0.0,0.0,8.087587275440455e-07,1.2282725947443396e-06,3.890129391947994e-06,-5.907991180720273e-06,3.890129391947994e-06,-5.907991180720273e-06,0.0,0.0,0.0,0.0,1.0,3.890129391947994e-06,-5.907991180720273e-06,0.19474999606609344,0.0,0.0,-0.0,3.890129391947994e-06,-5.907991180720273e-06,0.19474999606609344,3.965473354128335e-07,-6.02241698288708e-07,0.12655489146709442,-0.12468903511762619,0.12655529379844666,-0.12468963861465454,1.0471975803375244,-0.05278952419757843,0.4476403295993805,8.95280647277832,0.0,546.2846069335938,0.051249999552965164,3491000081,16,15
827477062,2,292,2,0,73816770,73817,70699,454,-86,8015,-591,16,-141,-13,28.546875,-0.013978082686662674,-0.0016925472300499678,0.9901122450828552,18.9666748046875,-19.374305725097656,18.56446075439453,-6.981154918670654,-6.210458755493164,-106.14703369140625,1500,1500,1211,1500,2000,1000,1000,1000,1277,1495,1824,1100,1532,1,1,1,1,1,1,1,0,1,1,0,0,stabilized_mix,-0.01947217993438244,-0.0016367030330002308,0.009750708937644958,-3.232020026189275e-05,-5.639095888909651e-06,2.6638595954864286e-05,0.0,0.0,3.232020026189275e-05,5.639095888909651e-06,0.00015546016220469028,-2.712405148486141e-05,0.00015546016220469028,-2.712405148486141e-05,0.0,0.0,0.0,0.0,1.0,0.00015546016220469028,-2.712405148486141e-05,0.20044998824596405,0.0,0.0,-0.0,0.00015546016220469028,-2.712405148486141e-05,0.20044998824596405,1.5847110262257047e-05,-2.764938926702598e-06,0.12688644230365753,-0.12421678006649017,0.1269022822380066,-0.12421954423189163,1.0471975803375244,-0.04860164597630501,0.44874709844589233,8.97494125366211,0.0,546.9595336914062,0.05274999886751175,315623365,16,15
827477062,2,292,3,0,73820796,73821,70703,464,-719,8173,-102,4,-333,-14,28.625,-0.010224435478448868,0.004186014644801617,0.9999781250953674,18.977754592895508,-19.196279525756836,13.062989234924316,-6.983640193939209,-6.224352836608887,-106.08665466308594,1500,1500,1211,1500,2000,1000,1000,1000,1277,1494,1824,1100,1534,1,1,1,1,1,1,1,0,1,1,0,0,stabilized_mix,-0.051545508205890656,0.0066732605919241905,0.0009683419484645128,-0.00019746126781683415,2.2327796614263207e-05,4.780396557180211e-05,0.0,0.0,0.00019746126781683415,-2.2327796614263207e-05,0.0009497886640019715,0.00010739669960457832,0.0009497886640019715,0.00010739669960457832,0.0,0.0,0.0,-0.0,1.0,0.0009497886640019715,0.00010739669960457832,0.20044998824596405,0.0,-0.0,-0.0,0.0009497886640019715,0.00010739669960457832,0.20044998824596405,9.681841038400307e-05,1.0947675036732107e-05,0.12572050094604492,-0.12428933382034302,0.12581731379032135,-0.12427838891744614,1.0471975803375244,-0.0341988280415535,0.4525436460971832,9.050871849060059,0.0,549.2683715820312,0.05274999886751175,3989578889,16,15
827477062,2,292,4,0,73824830,73825,70707,472,-411,8168,-202,-5,-99,-8,28.6875,0.0007645301520824432,0.0017582252621650696,0.9900248050689697,19.066036224365234,-19.183992385864258,15.170438766479492,-6.978565692901611,-6.224059104919434,-106.0318374633789,1500,1500,1220,1500,2000,1000,1000,1000,1285,1494,1824,1100,1541,1,1,1,1,1,1,1,0,1,1,0,0,stabilized_mix,-0.04332068935036659,-0.003480448853224516,0.007008802145719528,-0.00038125275750644505,1.4632825696025975e-05,5.643123222398572e-05,0.0,0.0,0.00038125275750644505,-1.4632825696025975e-05,0.0018338257214054465,7.0383888669312e-05,0.0018338257214054465,7.0383888669312e-05,0.0,0.0,0.0,0.0,1.0,0.0018338257214054465,7.0383888669312e-05,0.20899999141693115,0.0,-0.0,-0.0,0.0018338257214054465,7.0383888669312e-05,0.20899999141693115,0.00018693431047722697,7.174708116508555e-06,0.12564003467559814,-0.1248675137758255,0.12582696974277496,-0.12486033886671066,1.0471975803375244,-0.03971611708402634,0.4510864019393921,9.021727561950684,0.0,548.38330078125,0.054999999701976776,3999390515,16,15
827477062,2,292,5,0,73828864,73829,70711,456,335,8268,-154,-3,93,-4,28.5625,0.015250078402459621,-0.01318177580833435,0.9932904243469238,19.206260681152344,-18.936832427978516,21.366304397583008,-6.976202011108398,-6.212547302246094,-105.95352172851562,1500,1500,1220,1500,2000,1000,1000,1000,1285,1494,1824,1100,1540,1,1,1,1,1,1,1,0,1,1,0,0,stabilized_mix,-0.013029025867581367,-0.005280278157442808,0.022696103900671005,-0.0004846150113735348,-2.8669262974290177e-05,0.00013595195196103305,0.0,0.0,0.0004846150113735348,2.8669262974290177e-05,0.0023309981916099787,-0.00013789915828965604,0.0023309981916099787,-0.00013789915828965604,0.0,0.0,0.0,0.0,1.0,0.0023309981916099787,-0.00013789915828965604,0.20899999141693115,0.0,0.0,-0.0,0.0023309981916099787,-0.00013789915828965604,0.20899999141693115,0.00023761448392178863,-1.4056998224987183e-05,0.12402133643627167,-0.12578587234020233,0.12425895035266876,-0.12579992413520813,1.0471975803375244,-0.05593685433268547,0.4467976987361908,8.935953140258789,0.0,545.7702026367188,0.054999999701976776,2557002561,16,15
827477062,2,292,6,0,73832899,73833,70715,456,-90,8197,135,-20,162,-15,28.5625,0.006040418520569801,-0.0025614912156015635,1.002707839012146,19.01003074645996,-18.882831573486328,23.639366149902344,-6.976499557495117,-6.212061405181885,-105.86186218261719,1500,1500,1221,1500,2000,1000,1000,1000,1286,1494,1824,1100,1540,1,1,1,1,1,1,1,0,1,1,0,0,stabilized_mix,-0.014308136887848377,-0.0017298003658652306,0.006033096928149462,-0.0005420157103799284,-3.5596818634076044e-05,0.00019069662084802985,0.0,0.0,0.0005420157103799284,3.5596818634076044e-05,0.0026070955209434032,-0.00017122070130426437,0.0026070955209434032,-0.00017122070130426437,0.0,0.0,0.0,0.0,1.0,0.0026070955209434032,-0.00017122068675234914,0.20995000004768372,0.0,0.0,-0.0,0.0026070955209434032,-0.00017122068675234914,0.20995000004768372,0.0002657589502632618,-1.745368899719324e-05,0.12366767227649689,-0.12450072169303894,0.12393343448638916,-0.12451817840337753,1.0471975803375244,-0.0618877187371254,0.44522514939308167,8.904501914978027,0.0,544.8088989257812,0.05525000020861626,3908100057,16,15
827477062,2,292,7,0,73836930,73837,70719,450,64,8402,-777,-12,257,-6,28.515625,0.0029695313423871994,-0.0050154635682702065,0.9907873868942261,19.04990005493164,-19.061004638671875,26.231176376342773,-6.97134256362915,-6.201201915740967,-105.76036071777344,1500,1500,1229,1500,2000,1000,1000,1000,1292,1494,1824,1100,1546,1,1,1,1,1,1,1,0,1,1,0,0,stabilized_mix,0.008314896374940872,-0.009632567875087261,0.0039509255439043045,-0.0005290781264193356,-7.653296779608354e-05,0.0001864688820205629,0.0,0.0,0.0005290781264193356,7.653296779608354e-05,0.0025448657106608152,-0.0003681235830299556,0.0025448657106608152,-0.0003681235830299556,0.0,0.0,-0.0,0.0,1.0,0.0025448657106608152,-0.0003681235830299556,0.21754999458789825,0.0,0.0,-0.0,0.0025448657106608152,-0.0003681235830299556,0.21754999458789825,0.00025941545027308166,-3.752533666556701e-05,0.1248345598578453,-0.12476183474063873,0.1250939816236496,-0.12479936331510544,1.0471975803375244,-0.06867305934429169,0.44343897700309753,8.868779182434082,0.0,543.7149658203125,0.0572500005364418,1011752374,16,15
827477062,2,292,8,0,73840963,73841,70723,456,-47,8697,547,-22,-69,0,28.5625,0.005115101113915443,-0.02885361760854721,0.9915385246276855,19.28542709350586,-18.710752487182617,20.05063247680664,-6.987252235412598,-6.213543891906738,-105.67041778564453,1500,1500,1229,1500,2000,1000,1000,1000,1292,1493,1823,1100,1547,1,1,1,1,1,1,1,0,1,1,0,0,stabilized_mix,-0.027667103335261345,0.03189003840088844,0.020614147186279297,-0.0006149098626337945,-3.582857607398182e-05,0.00023764374782331288,0.0,0.0,0.0006149098626337945,3.582857607398182e-05,0.002957716351374984,-0.0001723354507703334,0.002957716351374984,-0.0001723354507703334,0.0,0.0,0.0,-0.0,1.0,0.002957716351374984,-0.0001723354507703334,0.21754999458789825,0.0,0.0,-0.0,0.002957716351374984,-0.0001723354507703334,0.21754999458789825,0.0003015001129824668,-1.7567323084222153e-05,0.122540682554245,-0.12630435824394226,0.12284218519926071,-0.1263219267129898,1.0471975803375244,-0.05249243229627609,0.447701632976532,8.954031944274902,0.0,546.322021484375,0.0572500005364418,3457317285,16,15
827477062,2,292,9,0,73844996,73845,70727,468,-133,7737,-126,12,-191,-17,28.65625,0.006461034528911114,0.00925670750439167,0.9950171709060669,19.152908325195312,-19.680524826049805,14.088703155517578,-6.980205059051514,-6.218028545379639,-105.61131286621094,1500,1500,1229,1500,2000,1000,1000,1000,1292,1496,1824,1100,1548,1,1,1,1,1,1,1,0,1,1,0,0,stabilized_mix,-0.03266456723213196,0.008089356124401093,0.01714225485920906,-0.0007569610024802387,4.803613410331309e-05,0.0003214497701264918,0.0,0.0,0.0007569610024802387,-4.803613410331309e-05,0.003640982322394848,0.00023105379659682512,0.003640982322394848,0.00023105379659682512,0.0,0.0,0.0,-0.0,1.0,0.003640982322394848,0.00023105379659682512,0.21754999458789825,0.0,-0.0,-0.0,0.003640982322394848,0.00023105379659682512,0.21754999458789825,0.00037115003215149045,2.3552884158561938e-05,0.1288919299840927,-0.1254364550113678,0.12926307320594788,-0.12541289627552032,1.0471975803375244,-0.036884140223264694,0.4518498480319977,9.036995887756348,0.0,548.84716796875,0.0572500005364418,3312225047,16,15
827477062,2,292,10,0,73849029,73849,70731,468,-190,8005,-103,-59,-92,-11,28.65625,-0.01173381693661213,0.003666701726615429,0.9986318945884705,19.108421325683594,-18.76610565185547,13.558974266052246,-6.966554641723633,-6.24221658706665,-105.56563568115234,1500,1500,1229,1500,2000,1000,1000,1000,1292,1493,1824,1100,1548,1,1,1,1,1,1,1,0,1,1,0,0,stabilized_mix,-0.08355766534805298,-0.022154465317726135,-0.0005697170272469521,-0.001044700969941914,-1.772548239387106e-05,0.0003413018421269953,0.0,0.0,0.001044700969941914,1.772548239387106e-05,0.005025011487305164,-8.525956945959479e-05,0.005025011487305164,-8.525956945959479e-05,0.0,0.0,0.0,0.0,1.0,0.005025011487305164,-8.525956945959479e-05,0.21754999458789825,0.0,0.0,-0.0,0.005025011487305164,-8.525956945959479e-05,0.21754999458789825,0.0005122335278429091,-8.691086804901715e-06,0.12290320545434952,-0.1251451075077057,0.12341544032096863,-0.1251537948846817,1.0471975803375244,-0.035497311502695084,0.4521881937980652,9.043763160705566,0.0,549.0526123046875,0.0572500005364418,982281791,16,15
827477062,2,292,11,0,73852055,73853,70734,470,1228,7689,1832,49,163,34,28.671875,0.04106166958808899,-0.018232421949505806,0.9764499664306641,19.482269287109375,-19.541826248168945,16.439451217651367,-6.962497234344482,-6.23734188079834,-105.52445220947266,1500,1500,1229,1500,2000,1000,1000,1000,1292,1496,1823,1100,1548,1,1,1,1,1,1,1,0,1,1,0,0,stabilized_mix,-0.0604601725935936,-0.025716710835695267,0.01679738238453865,-0.0012868731282651424,-0.00011353730951668695,0.00036244007060304284,0.0,0.0,0.0012868731282651424,0.00011353730951668695,0.006189859472215176,-0.0005461144610308111,0.006189859472215176,-0.0005461144610308111,0.0,0.0,0.0,0.0,1.0,0.006189859472215176,-0.0005461144610308111,0.21754999458789825,0.0,0.0,-0.0,0.006189859472215176,-0.0005461144610308111,0.21754999458789825,0.0006309743621386588,-5.5669159337412566e-05,0.12798357009887695,-0.1275935173034668,0.12861454486846924,-0.127649188041687,1.0471975803375244,-0.04303838312625885,0.4502185583114624,9.00437068939209,0.0,547.8555297851562,0.0572500005364418,645091583,16,15
827477062,2,292,12,0,73856115,73857,70738,460,-402,8350,907,18,280,23,28.59375,0.014104608446359634,0.0010808231309056282,0.9886577129364014,19.726612091064453,-19.34548568725586,23.91718292236328,-6.978021144866943,-6.228139400482178,-105.43923950195312,1500,1500,1229,1500,2000,1000,1000,1000,1292,1495,1822,1100,1546,1,1,1,1,1,1,1,0,1,1,0,0,stabilized_mix,-0.0367417074739933,0.008635221980512142,0.031539369374513626,-0.0014532646164298058,-9.279273945139721e-05,0.0004666623135562986,0.0,0.0,0.0014532646164298058,9.279273945139721e-05,0.0069902027025818825,-0.0004463330842554569,0.0069902027025818825,-0.0004463330842554569,0.0,0.0,0.0,-0.0,1.0,0.0069902027025818825,-0.0004463330842554569,0.21754999458789825,0.0,0.0,-0.0,0.0069902027025818825,-0.0004463330842554569,0.21754999458789825,0.0007125587435439229,-4.54977634944953e-05,0.12669768929481506,-0.1291937679052353,0.12741024792194366,-0.1292392611503601,1.0471975803375244,-0.0626150444149971,0.4450438618659973,8.900876998901367,0.0,544.697998046875,0.0572500005364418,3582910259,16,15
827477062,2,292,13,0,73860148,73861,70742,462,-1822,8517,300,21,117,-32,28.609375,0.0036739364732056856,0.04220379889011383,1.0053380727767944,19.015300750732422,-18.956491470336914,24.935379028320312,-6.973385810852051,-6.224077224731445,-105.33943176269531,1500,1500,1229,1500,2000,1000,1000,1000,1292,1494,1824,1100,1546,1,1,1,1,1,1,1,0,1,1,0,0,stabilized_mix,-0.03164627403020859,-0.010349776595830917,0.007303751539438963,-0.0015753782354295254,-4.24931786255911e-05,0.0005314173176884651,0.0,0.0,0.0015753782354295254,4.24931786255911e-05,0.0075775692239403725,-0.00020439218496903777,0.0075775692239403725,-0.00020439218496903777,0.0,0.0,0.0,-0.0,1.0,0.0075775692239403725,-0.00020439218496903777,0.21754999458789825,0.0,0.0,-0.0,0.0075775692239403725,-0.00020439218496903777,0.21754999458789825,0.0007724329479970038,-2.083508479699958e-05,0.12415008246898651,-0.12453524023294449,0.12492251396179199,-0.12455607205629349,1.0471975803375244,-0.06528066843748093,0.44432973861694336,8.88659381866455,0.0,544.2608032226562,0.0572500005364418,1180931421,16,15
827477062,2,292,14,0,73864179,73865,70746,450,-238,8410,-23,16,-228,-21,28.515625,0.0009989014361053705,-0.02082519605755806,0.9993749856948853,18.7819766998291,-19.043333053588867,18.52069664001465,-6.973184585571289,-6.224106311798096,-105.25386047363281,1500,1500,1229,1500,2000,1000,1000,1000,1292,1494,1825,1100,1548,1,1,1,1,1,1,1,0,1,1,0,0,stabilized_mix,-0.03216789290308952,0.005981506314128637,0.0030896393582224846,-0.0017011030577123165,-9.537128789816052e-05,0.0005458944942802191,0.0,0.0,0.0017011030577123165,9.537128789816052e-05,0.008182305842638016,-0.0004587358853314072,0.008182305842638016,-0.0004587358853314072,0.0,0.0,0.0,-0.0,1.0,0.008182305842638016,-0.00045873591443523765,0.21754999458789825,0.0,0.0,-0.0,0.008182305842638016,-0.00045873591443523765,0.21754999458789825,0.0008340778294950724,-4.676206663134508e-05,0.12471882253885269,-0.1230071485042572,0.12555290758609772,-0.1230539083480835,1.0471975803375244,-0.04848707094788551,0.4487661123275757,8.975321769714355,0.0,546.9711303710938,0.0572500005364418,4036079902,17,16
827477062,2,292,15,0,73868191,73869,70750,470,-222,8451,-50,-3,-350,9,28.671875,-0.003539853263646364,-0.0273255854845047,0.9995830655097961,19.325414657592773,-18.917308807373047,13.554838180541992,-6.994993686676025,-6.230734825134277,-105.19169616699219,1500,1500,1229,1500,2000,1000,1000,1000,1292,1494,1823,1100,1548,1,1,1,1,1,1,1,0,1,1,0,0,stabilized_mix,-0.04486676678061485,0.05934114381670952,0.016535190865397453,-0.0018622161587700248,5.126980977365747e-05,0.0006086479406803846,0.0,0.0,0.0018622161587700248,-5.126980977365747e-05,0.008957259356975555,0.00024660778581164777,0.008957259356975555,0.00024660778581164777,0.0,0.0,0.0,-0.0,1.0,0.008957259356975555,0.00024660778581164777,0.21754999458789825,0.0,-0.0,-0.0,0.008957259356975555,0.00024660778581164777,0.21754999458789825,0.0009130740654654801,2.5138408091152087e-05,0.12389346957206726,-0.12656623125076294,0.12480654567480087,-0.12654109299182892,1.0471975803375244,-0.03548648580908775,0.45219480991363525,9.043895721435547,0.0,549.056640625,0.0572500005364418,1169177299,17,16
827477062,2,292,16,0,73872218,73873,70754,444,-295,8746,-963,15,-155,-9,28.46875,-0.006351247429847717,0.011802028864622116,1.009507179260254,19.140432357788086,-19.51688003540039,15.031314849853516,-6.989663600921631,-6.22796106338501,-105.13423919677734,1500,1500,1229,1500,2000,1000,1000,1000,1292,1496,1824,1100,1548,1,1,1,1,1,1,1,0,1,1,0,0,stabilized_mix,-0.028449617326259613,0.029933959245681763,0.004498956725001335,-0.0019899089820683002,0.00023948895977810025,0.000658555596601218,0.0,0.0,0.0019899089820683002,-0.00023948895977810025,0.00957146193832159,0.0011519418330863118,0.00957146193832159,0.0011519418330863118,0.0,0.0,0.0,-0.0,1.0,0.00957146193832159,0.0011519418330863118,0.21754999458789825,0.0,-0.0,-0.0,0.00957146193832159,0.0011519418330863118,0.21754999458789825,0.0009756838553585112,0.00011742526112357154,0.1278201788663864,-0.12535475194454193,0.12879586219787598,-0.1252373307943344,1.0471975803375244,-0.03935189172625542,0.4511907398700714,9.02381420135498,0.0,548.4467163085938,0.0572500005364418,1160525322,17,16
827477062,2,292,17,0,73876251,73877,70758,456,132,8524,-338,12,85,-8,28.5625,0.0049912817776203156,0.002953631803393364,0.9998676180839539,19.04739761352539,-19.374027252197266,19.758014678955078,-6.975919246673584,-6.228631496429443,-105.06131744384766,1500,1500,1229,1500,2000,1000,1000,1000,1292,1495,1824,1100,1547,1,1,1,1,1,1,1,0,1,1,0,0,stabilized_mix,-0.020744139328598976,-0.005461949855089188,-0.0016010787803679705,-0.0020968092139810324,0.00025795091642066836,0.000652364338748157,0.0,0.0,0.0020968092139810324,-0.00025795091642066836,0.010085652582347393,0.001240743906237185,0.010085652582347393,0.001240743906237185,0.0,0.0,0.0,0.0,1.0,0.010085652582347393,0.001240743906237185,0.21754999458789825,0.0,-0.0,-0.0,0.010085652582347393,0.001240743906237185,0.21754999458789825,0.0010280987480655313,0.0001264774618903175,0.12688462436199188,-0.1247454509139061,0.1279127299785614,-0.12461896985769272,1.0471975803375244,-0.051726363599300385,0.44791877269744873,8.958374977111816,0.0,546.4544677734375,0.0572500005364418,2638289145,17,16
827477062,2,292,18,0,73880285,73881,70762,476,624,8191,125,6,89,-1,28.71875,0.012397387996315956,-0.012193921953439713,0.9869586229324341,19.180423736572266,-19.192853927612305,22.40239906311035,-6.972613334655762,-6.225683689117432,-104.97057342529297,1500,1500,1229,1500,2000,1000,1000,1000,1292,1495,1824,1100,1547,1,1,1,1,1,1,1,0,1,1,0,0,stabilized_mix,-0.009399667382240295,-0.009280411526560783,0.016883887350559235,-0.002162934746593237,0.0002106743340846151,0.0006844526506029069,0.0,0.0,0.002162934746593237,-0.0002106743340846151,0.010403716005384922,0.0010133435716852546,0.010403716005384922,0.0010133435716852546,0.0,0.0,0.0,0.0,1.0,0.010403716005384922,0.0010133435716852546,0.21754999458789825,0.0,-0.0,-0.0,0.010403716005384922,0.0010133435716852546,0.21754999458789825,0.0010605211136862636,0.00010329699580324814,0.12569807469844818,-0.125616654753685,0.12675859034061432,-0.12551335990428925,1.0471975803375244,-0.058649346232414246,0.44608595967292786,8.92171859741211,0.0,545.3353271484375,0.0572500005364418,4096403408,17,16
827477062,2,292,19,0,73884316,73885,70766,464,-397,8208,-636,0,-52,-9,28.625,-0.008341152220964432,0.0048196446150541306,0.9948327541351318,19.170757293701172,-19.23708724975586,20.5004940032959,-6.97831392288208,-6.225804805755615,-104.88140869140625,1500,1500,1229,1500,2000,1000,1000,1000,1292,1495,1824,1100,1547,1,1,1,1,1,1,1,0,1,1,0,0,stabilized_mix,-0.010399296879768372,0.0037471437826752663,0.015557506121695042,-0.0021839358378201723,0.0002350415161345154,0.0007495813770219684,0.0,0.0,0.0021839358378201723,-0.0002350415161345154,0.010504730977118015,0.0011305497027933598,0.010504730977118015,0.0011305497027933598,0.0,0.0,0.0,-0.0,1.0,0.010504730977118015,0.0011305497027933598,0.21754999458789825,0.0,-0.0,-0.0,0.010504730977118015,0.0011305497027933598,0.21754999458789825,0.0010708181653171778,0.00011524461297085509,0.12598776817321777,-0.12555335462093353,0.12705858051776886,-0.12543810904026031,1.0471975803375244,-0.05367016792297363,0.4474017918109894,8.94803524017334,0.0,546.1390380859375,0.0572500005364418,2134716783,17,16
827477062,2,292,20,0,73888348,73889,70770,480,-747,8211,-855,-7,-112,-21,28.75,-0.015416335314512253,0.008315591141581535,1.000241994857788,18.940261840820312,-19.22715950012207,17.429122924804688,-6.976616382598877,-6.236007213592529,-104.80699920654297,1500,1500,1229,1500,2000,1000,1000,1000,1292,1495,1824,1100,1548,1,1,1,1,1,1,1,0,1,1,0,0,stabilized_mix,-0.03182978183031082,0.0012147463858127594,-0.0009230272844433784,-0.0022756352555006742,0.000254105863859877,0.000764183874707669,0.0,0.0,0.0022756352555006742,-0.000254105863859877,0.010945805348455906,0.0012222492368891835,0.010945805348455906,0.0012222492368891835,0.0,0.0,0.0,-0.0,1.0,0.010945805348455906,0.0012222493533045053,0.21754999458789825,0.0,-0.0,-0.0,0.010945805348455906,0.0012222493533045053,0.21754999458789825,0.0011157798580825329,0.0001245921739609912,0.12592275440692902,-0.1240437924861908,0.12703853845596313,-0.12391920387744904,1.0471975803375244,-0.045629337430000305,0.4495237171649933,8.990473747253418,0.0,547.4326171875,0.0572500005364418,4217863691,17,16
827477062,2,292,21,0,73892380,73893,70774,460,60,7885,-484,5,-96,-11,28.59375,-0.00035072769969701767,-0.020057177171111107,0.9907717108726501,19.005495071411133,-19.303850173950195,16.045677185058594,-6.980764865875244,-6.243585586547852,-104.7419204711914,1500,1500,1229,1500,2000,1000,1000,1000,1292,1495,1824,1100,1548,1,1,1,1,1,1,1,0,1,1,0,0,stabilized_mix,-0.040179990231990814,0.016642892733216286,0.0067924512550234795,-0.0024458742700517178,0.00026840667123906314,0.0007797020953148603,0.0,0.0,0.0024458742700517178,-0.00026840667123906314,0.011764654889702797,0.0012910360237583518,0.011764654889702797,0.0012910360237583518,0.0,0.0,0.0,-0.0,1.0,0.011764654889702797,0.0012910360237583518,0.21754999458789825,0.0,-0.0,-0.0,0.011764654889702797,0.0012910360237583518,0.21754999458789825,0.0011992505751550198,0.00013160407252144068,0.12642499804496765,-0.124471016228199,0.1276242434978485,-0.12433940917253494,1.0471975803375244,-0.042007483541965485,0.4504816234111786,9.009632110595703,0.0,548.0155639648438,0.0572500005364418,3762427635,17,16
827477062,2,292,22,0,73896413,73897,70778,466,550,8201,-579,-8,-10,2,28.640625,0.0003244839608669281,-0.02089773118495941,0.9958311319351196,19.13209342956543,-19.261505126953125,17.86308479309082,-6.985309600830078,-6.245065689086914,-104.6728744506836,1500,1500,1229,1500,2000,1000,1000,1000,1292,1495,1824,1100,1548,1,1,1,1,1,1,1,0,1,1,0,0,stabilized_mix,-0.03268977627158165,0.02622898668050766,0.015076869167387486,-0.0025959305930882692,0.0003433968813624233,0.0008398782229050994,0.0,0.0,0.0025959305930882692,-0.0003433968813624233,0.012486426159739494,0.001651739003136754,0.012486426159739494,0.001651739003136754,0.0,0.0,0.0,-0.0,1.0,0.012486426159739494,0.0016517391195520759,0.21754999458789825,0.0,-0.0,-0.0,0.012486426159739494,0.0016517391195520759,0.21754999458789825,0.0012728255242109299,0.00016837297880556434,0.12614768743515015,-0.12530013918876648,0.12742051482200623,-0.1251317709684372,1.0471975803375244,-0.04676544666290283,0.44922375679016113,8.984475135803223,0.0,547.2499389648438,0.0572500005364418,1714126801,17,16
827477062,2,292,23,0,73900446,73901,70782,452,257,8283,-751,5,64,4,28.53125,-0.007427451200783253,-0.005564998369663954,1.001387596130371,19.1900634765625,-19.374650955200195,20.493576049804688,-6.986128330230713,-6.247443675994873,-104.59269714355469,1500,1500,1229,1500,2000,1000,1000,1000,1292,1495,1824,1100,1547,1,1,1,1,1,1,1,0,1,1,0,0,stabilized_mix,-0.030990999191999435,0.022606998682022095,0.004210278391838074,-0.002716928254812956,0.000447164784418419,0.0008754978771321476,0.0,0.0,0.002716928254812956,-0.000447164784418419,0.0130684245377779,0.0021508624777197838,0.0130684245377779,0.0021508624777197838,0.0,0.0,0.0,-0.0,1.0,0.0130684245377779,0.0021508624777197838,0.21754999458789825,0.0,-0.0,-0.0,0.0130684245377779,0.0021508624777197838,0.21754999458789825,0.0013321525184437633,0.0002192520332755521,0.126888707280159,-0.12567979097366333,0.12822085618972778,-0.12546053528785706,1.0471975803375244,-0.05365205928683281,0.44740810990333557,8.948162078857422,0.0,546.1428833007812,0.0572500005364418,1971029588,17,16
827477062,2,292,24,0,73904480,73905,70786,456,379,8070,-143,16,24,-7,28.5625,0.005112714599817991,-0.00299580255523324,0.9918660521507263,19.010835647583008,-19.4593448638916,20.35081672668457,-6.982296466827393,-6.250233173370361,-104.50849914550781,1500,1500,1245,1500,2000,1000,1000,1000,1306,1496,1824,1100,1561,1,1,1,1,1,1,1,0,1,1,0,0,stabilized_mix,-0.02915439009666443,0.009879399091005325,0.007660748437047005,-0.0028517397586256266,0.0005097116227261722,0.0008950750343501568,0.0,0.0,0.0028517397586256266,-0.0005097116227261722,0.013716868124902248,0.002451712964102626,0.013716868124902248,0.002451712964102626,0.0,0.0,0.0,-0.0,1.0,0.013716869056224823,0.002451712964102626,0.23274999856948853,0.0,-0.0,-0.0,0.013716869056224823,0.002451712964102626,0.23274999856948853,0.0013982526725158095,0.0002499197726137936,0.12744338810443878,-0.12450599670410156,0.12884163856506348,-0.12425607442855835,1.0471975803375244,-0.05327831581234932,0.4475088119506836,8.950175285339355,0.0,546.204345703125,0.061250001192092896,476174762,17,16
827477062,2,292,25,0,73908511,73909,70790,460,-300,8186,-98,30,-75,-19,28.59375,0.0027613891288638115,0.0035626511089503765,0.9933940768241882,18.78179359436035,-19.66625213623047,18.28946304321289,-6.980978488922119,-6.25112771987915,-104.42981719970703,1500,1500,1246,1500,2000,1000,1000,1000,1307,1496,1825,1100,1563,1,1,1,1,1,1,1,0,1,1,0,0,stabilized_mix,-0.023989908397197723,0.007417577318847179,0.014704519882798195,-0.002955063944682479,0.0005574932438321412,0.000946470070630312,0.0,0.0,0.002955063944682479,-0.0005574932438321412,0.014213857240974903,0.002681542420759797,0.014213857240974903,0.002681542420759797,0.0,0.0,0.0,-0.0,1.0,0.014213857240974903,0.002681542420759797,0.2337000072002411,0.0,-0.0,-0.0,0.014213857240974903,0.002681542420759797,0.2337000072002411,0.0014489140594378114,0.000273347832262516,0.1287984549999237,-0.1230059564113617,0.13024736940860748,-0.12273260951042175,1.0471975803375244,-0.047881703823804855,0.448939710855484,8.978793144226074,0.0,547.076904296875,0.061500001698732376,4278505822,17,16
827477062,2,292,26,0,73912544,73913,70794,454,301,7880,-448,44,-89,-47,28.546875,-0.01116949412971735,0.010715771466493607,0.9893299341201782,17.9157772064209,-19.96333885192871,17.184415817260742,-6.959805011749268,-6.258284568786621,-104.35841369628906,1500,1500,1246,1500,2000,1000,1000,1000,1307,1497,1827,1100,1563,1,1,1,1,1,1,1,0,1,1,0,0,stabilized_mix,-0.033024173229932785,-0.03292664512991905,0.017073042690753937,-0.003059068229049444,0.0004841394838877022,0.0010057396721094847,0.0,0.0,0.003059068229049444,-0.0004841394838877022,0.014714118093252182,0.002328710863366723,0.014714118093252182,0.002328710863366723,0.0,0.0,0.0,0.0,1.0,0.014714118093252182,0.002328710863366723,0.2337000072002411,0.0,-0.0,-0.0,0.014714118093252182,0.002328710863366723,0.2337000072002411,0.0014999088598415256,0.0002373813185840845,0.13074414432048798,-0.11733422428369522,0.1322440505027771,-0.11709684133529663,1.0471975803375244,-0.04498869925737381,0.44971299171447754,8.99425983428955,0.0,547.5478515625,0.061500001698732376,1353227903,17,16
827477062,2,292,27,0,73916578,73917,70798,454,488,8284,-425,26,8,13,28.546875,-0.011654991656541824,-0.049903132021427155,0.9887778162956238,18.80252456665039,-19.770252227783203,18.46401023864746,-6.98755407333374,-6.2668938636779785,-104.28705596923828,1500,1500,1246,1500,2000,1000,1000,1000,1307,1497,1825,1100,1563,1,1,1,1,1,1,1,0,1,1,0,0,stabilized_mix,-0.0431043766438961,0.048434071242809296,0.036518845707178116,-0.0032068390864878893,0.0005282767815515399,0.0011294139549136162,0.0,0.0,0.0032068390864878893,-0.0005282767815515399,0.015424896031618118,0.0025410111993551254,0.015424896031618118,0.0025410111993551254,0.0,0.0,0.0,-0.0,1.0,0.015424896031618118,0.0025410111993551254,0.2337000072002411,0.0,-0.0,-0.0,0.015424896031618118,0.0025410111993551254,0.2337000072002411,0.0015723631950095296,0.00025902254856191576,0.1294795721769333,-0.12314172089099884,0.1310519427061081,-0.12288270145654678,1.0471975803375244,-0.048338666558265686,0.44882091879844666,8.976417541503906,0.0,547.0045166015625,0.061500001698732376,311387854,18,17
827477062,2,292,28,0,73920610,73921,70802,446,-1450,8266,357,7,43,41,28.484375,0.01658317632973194,-8.230656385421753e-05,0.996221661567688,20.131696701049805,-19.08527183532715,19.521930694580078,-7.017289638519287,-6.261605739593506,-104.21070098876953,1500,1500,1246,1500,2000,1000,1000,1000,1307,1495,1821,1100,1562,1,1,1,1,1,1,1,0,1,1,0,0,stabilized_mix,-0.02331436052918434,0.09841924905776978,0.03106568194925785,-0.0033456741366535425,0.0009083897457458079,0.0012639565393328667,0.0,0.0,0.0033456741366535425,-0.0009083897457458079,0.0160926915705204,0.00436935480684042,0.0160926915705204,0.00436935480684042,0.0,0.0,0.0,-0.0,1.0,0.0160926915705204,0.00436935480684042,0.2337000072002411,0.0,-0.0,-0.0,0.0160926915705204,0.00436935480684042,0.2337000072002411,0.0016404358902946115,0.00044539800728671253,0.12499348819255829,-0.13184674084186554,0.1266339272260666,-0.13140134513378143,1.0471975803375244,-0.05110829696059227,0.44806984066963196,8.961396217346191,0.0,546.546630859375,0.061500001698732376,2141936978,18,17
827477062,2,292,29,0,73924643,73925,70806,462,-5,8076,-336,12,29,39,28.609375,-0.012367880903184414,0.02712288498878479,1.0028454065322876,20.23259925842285,-19.023122787475586,20.12638282775879,-6.987468242645264,-6.26197624206543,-104.12997436523438,1500,1500,1246,1500,2000,1000,1000,1000,1307,1495,1821,1100,1562,1,1,1,1,1,1,1,0,1,1,0,0,stabilized_mix,-0.02639150805771351,-0.0014538411051034927,0.005338338669389486,-0.0034147242549806833,0.0010407568188384175,0.0013200745452195406,0.0,0.0,0.0034147242549806833,-0.0010407568188384175,0.01642482355237007,0.005006040446460247,0.01642482355237007,0.005006040446460247,0.0,0.0,0.0,-0.0,1.0,0.01642482355237007,0.005006040446460247,0.2337000072002411,0.0,-0.0,-0.0,0.01642482355237007,0.005006040446460247,0.2337000072002411,0.0016742923762649298,0.0005102996365167201,0.12458646297454834,-0.1325075924396515,0.12626075744628906,-0.13199728727340698,1.0471975803375244,-0.05269074812531471,0.44765031337738037,8.95300579071045,0.0,546.2907104492188,0.061500001698732376,233059976,18,17
827477062,2,292,30,0,73928675,73929,70810,450,315,7825,351,10,-3,54,28.515625,-0.011267466470599174,0.008013822138309479,0.9873222708702087,20.505573272705078,-19.12458610534668,19.399728775024414,-6.969284534454346,-6.279411792755127,-104.05098724365234,1500,1500,1249,1500,2000,1000,1000,1000,1309,1495,1820,1100,1564,1,1,1,1,1,1,1,0,1,1,0,0,stabilized_mix,-0.06510563939809799,-0.052089884877204895,0.0049765692092478275,-0.0036236518062651157,0.000880225736182183,0.0013231157790869474,0.0,0.0,0.0036236518062651157,-0.000880225736182183,0.017429765313863754,0.004233885556459427,0.017429765313863754,0.004233885556459427,0.0,0.0,0.0,0.0,1.0,0.017429765313863754,0.004233885556459427,0.2365499883890152,0.0,-0.0,-0.0,0.017429765313863754,0.004233885556459427,0.2365499883890152,0.0017767325043678284,0.0004315887053962797,0.12525096535682678,-0.13429534435272217,0.127027690410614,-0.13386376202106476,1.0471975803375244,-0.05078837275505066,0.44815412163734436,8.963082313537598,0.0,546.5980224609375,0.06224999949336052,1065681971,18,17
827477062,2,292,31,0,73932710,73933,70814,470,83,8305,23,35,-19,39,28.671875,0.015309132635593414,0.0004202071577310562,0.9917395710945129,20.55587387084961,-19.75290298461914,18.689598083496094,-6.968077182769775,-6.27030611038208,-103.97508239746094,1500,1500,1246,1500,2000,1000,1000,1000,1307,1497,1820,1100,1562,1,1,1,1,1,1,1,0,1,1,0,0,stabilized_mix,-0.02979082614183426,-0.055362239480018616,0.018286749720573425,-0.00380260800011456,0.0006560849724337459,0.0013792390236631036,0.0,0.0,0.00380260800011456,-0.0006560849724337459,0.01829054392874241,0.0031557686161249876,0.01829054392874241,0.0031557686161249876,0.0,0.0,0.0,0.0,1.0,0.01829054392874241,0.0031557686161249876,0.2337000072002411,0.0,-0.0,-0.0,0.01829054392874241,0.0031557686161249876,0.2337000072002411,0.0018644771771505475,0.0003216889454051852,0.1293659508228302,-0.13462477922439575,0.131230428814888,-0.13430309295654297,1.0471975803375244,-0.048929255455732346,0.4486636221408844,8.973271369934082,0.0,546.9086303710938,0.061500001698732376,638775479,18,17
827477062,2,292,32,0,73936742,73937,70818,458,110,8213,747,33,-30,-7,28.578125,0.02262851595878601,-0.0030689286068081856,1.0041347742080688,19.562522888183594,-19.89552879333496,18.32111930847168,-6.968847274780273,-6.265590190887451,-103.90058898925781,1500,1500,1249,1500,2000,1000,1000,1000,1309,1497,1823,1100,1565,1,1,1,1,1,1,1,0,1,1,0,0,stabilized_mix,-0.008573688566684723,-0.047537192702293396,0.0006009666249155998,-0.0038827562239021063,0.00045129627687856555,0.0014125191373750567,0.0,0.0,0.0038827562239021063,-0.00045129627687856555,0.01867605745792389,0.002170735038816929,0.01867605745792389,0.002170735038816929,0.0,0.0,0.0,0.0,1.0,0.01867605745792389,0.002170735038816929,0.2365499883890152,0.0,-0.0,-0.0,0.01867605745792389,0.002170735038816929,0.2365499883890152,0.0019037751480937004,0.0002212777762906626,0.13030003011226654,-0.1281191110610962,0.13220380246639252,-0.12789782881736755,1.0471975803375244,-0.04796457663178444,0.44892382621765137,8.978475570678711,0.0,547.0671997070312,0.06224999949336052,1665374974,18,17
827477062,2,292,33,0,73940773,73941,70822,468,754,8025,23,41,1,-38,28.65625,-0.00028533191652968526,-0.029383327811956406,0.9945728778839111,18.501068115234375,-20.141494750976562,19.4840030670166,-6.978879451751709,-6.264778137207031,-103.82264709472656,1500,1500,1249,1500,2000,1000,1000,1000,1309,1498,1826,1100,1564,1,1,1,1,1,1,1,0,1,1,0,0,stabilized_mix,-0.0016661795089021325,-0.008452397771179676,-0.005287474952638149,-0.0038755417335778475,0.00033947621705010533,0.00139015878085047,0.0,0.0,0.0038755417335778475,-0.00033947621705010533,0.018641356378793716,0.0016328805359080434,0.018641356378793716,0.0016328805359080434,0.0,0.0,0.0,0.0,1.0,0.018641356378793716,0.0016328805359080434,0.2365499883890152,0.0,-0.0,-0.0,0.018641356378793716,0.0016328805359080434,0.2365499883890152,0.0019002377521246672,0.00016645061259623617,0.13191092014312744,-0.12116742134094238,0.13381116092205048,-0.12100096791982651,1.0471975803375244,-0.051009003072977066,0.44812890887260437,8.962577819824219,0.0,546.5826416015625,0.06224999949336052,4236973110,18,17
827477062,2,292,34,0,73944806,73945,70826,448,31,7968,118,30,12,-60,28.5,0.007731063291430473,-0.034768976271152496,0.9922190308570862,17.722850799560547,-19.92306137084961,19.90416717529297,-7.007475852966309,-6.266031742095947,-103.74241638183594,1500,1500,1249,1500,2000,1000,1000,1000,1309,1497,1828,1100,1564,1,1,1,1,1,1,1,0,1,1,0,0,stabilized_mix,-8.848682045936584e-05,0.07107870280742645,-0.002305110916495323,-0.003883819095790386,0.0005206267815083265,0.001372496597468853,0.0,0.0,0.003883819095790386,-0.0005206267815083265,0.018681170418858528,0.0025042148772627115,0.018681170418858528,0.0025042148772627115,0.0,0.0,0.0,-0.0,1.0,0.018681170418858528,0.0025042148772627115,0.2365499883890152,0.0,-0.0,-0.0,0.018681170418858528,0.0025042148772627115,0.2365499883890152,0.0019042963394895196,0.0002552716468926519,0.1304803490638733,-0.1160707026720047,0.13238464295864105,-0.1158154308795929,1.0471975803375244,-0.05210898816585541,0.44783008098602295,8.9566011428833,0.0,546.400390625,0.06224999949336052,3553045702,18,17
827477062,2,292,35,0,73948841,73949,70830,464,-253,8381,-72,3,-2,-52,28.625,-0.0045680818147957325,-0.02436906099319458,0.9987319111824036,17.622583389282227,-19.34712791442871,19.75565528869629,-7.027475833892822,-6.2717437744140625,-103.66195678710938,1500,1500,1249,1500,2000,1000,1000,1000,1309,1496,1828,1100,1564,1,1,1,1,1,1,1,0,1,1,0,0,stabilized_mix,-0.01350162923336029,0.11593614518642426,0.0038946899585425854,-0.00391047727316618,0.0009364184224978089,0.0013882850762456656,0.0,0.0,0.00391047727316618,-0.0009364184224978089,0.018809394910931587,0.004504172597080469,0.018809394910931587,0.004504172597080469,0.0,0.0,0.0,-0.0,1.0,0.018809394910931587,0.004504172597080469,0.2365499883890152,0.0,-0.0,-0.0,0.018809394910931587,0.004504172597080469,0.2365499883890152,0.0019173671025782824,0.0004591408942360431,0.12670844793319702,-0.11541403830051422,0.1286258101463318,-0.11495489627122879,1.0471975803375244,-0.051720183342695236,0.4479139447212219,8.95827865600586,0.0,546.4515380859375,0.06224999949336052,679065759,18,17
827477062,2,292,36,0,73952873,73953,70834,464,-294,7975,150,-22,-62,-28,28.625,-0.020748674869537354,-0.005204274319112301,0.9972749352455139,18.055614471435547,-18.638717651367188,18.402652740478516,-7.028910160064697,-6.292923927307129,-103.58515930175781,1500,1500,1249,1500,2000,1000,1000,1000,1309,1494,1827,1100,1565,1,1,1,1,1,1,1,0,1,1,0,0,stabilized_mix,-0.06595448404550552,0.10584356635808945,-0.00790906511247158,-0.004092663526535034,0.001389768673107028,0.0013669223990291357,0.0,0.0,0.004092663526535034,-0.001389768673107028,0.019685711711645126,0.006684787105768919,0.019685711711645126,0.006684787105768919,0.0,0.0,0.0,-0.0,1.0,0.019685711711645126,0.006684787105768919,0.2365499883890152,0.0,-0.0,-0.0,0.019685711711645126,0.006684787105768919,0.2365499883890152,0.002006695605814457,0.0006814256776124239,0.12206891179084778,-0.1182500422000885,0.12407560646533966,-0.11756861954927444,1.0471975803375244,-0.04817803204059601,0.44883155822753906,8.976631164550781,0.0,547.010986328125,0.06224999949336052,1392169158,18,17
827477062,2,292,37,0,73956905,73957,70838,472,-243,8006,-131,-21,-29,10,28.6875,-0.005700108595192432,0.008263535797595978,0.987381100654602,18.959686279296875,-18.51836395263672,18.191146850585938,-7.016942977905273,-6.299262523651123,-103.51222229003906,1500,1500,1249,1500,2000,1000,1000,1000,1309,1493,1825,1100,1565,1,1,1,1,1,1,1,0,1,1,0,0,stabilized_mix,-0.07395100593566895,0.06042395904660225,0.006693875417113304,-0.004385447129607201,0.0017036099452525377,0.001365825766697526,0.0,0.0,0.004385447129607201,-0.0017036099452525377,0.021093999966979027,0.008194363676011562,0.021093999966979027,0.008194363676011562,0.0,0.0,0.0,-0.0,1.0,0.021093999966979027,0.008194363676011562,0.2365499883890152,0.0,-0.0,-0.0,0.021093999966979027,0.008194363676011562,0.2365499883890152,0.002150251530110836,0.0008353070006705821,0.12128069251775742,-0.12417101114988327,0.12343094497919083,-0.12333570420742035,1.0471975803375244,-0.047624312341213226,0.4489749073982239,8.979497909545898,0.0,547.0983276367188,0.06224999949336052,1145286227,18,17
827477062,2,292,38,0,73960940,73961,70842,456,-385,8957,-49,3,-1,20,28.5625,0.010928139090538025,0.03049043007194996,1.0100103616714478,19.612415313720703,-18.77874755859375,18.444869995117188,-6.989674091339111,-6.293398380279541,-103.43899536132812,1500,1500,1249,1500,2000,1000,1000,1000,1309,1494,1823,1100,1565,1,1,1,1,1,1,1,0,1,1,0,0,stabilized_mix,-0.05095343291759491,-0.01849258504807949,0.013206799514591694,-0.004639981780201197,0.001753515680320561,0.0014391574077308178,0.0,0.0,0.004639981780201197,-0.001753515680320561,0.022318312898278236,0.008434410206973553,0.022318312898278236,0.008434410206973553,0.0,0.0,0.0,0.0,1.0,0.022318312898278236,0.008434410206973553,0.2365499883890152,0.0,-0.0,-0.0,0.022318312898278236,0.008434410206973553,0.2365499883890152,0.0022750534117221832,0.0008597765117883682,0.12298600375652313,-0.12844586372375488,0.12526105344295502,-0.12758608162403107,1.0471975803375244,-0.048288557678461075,0.44880419969558716,8.976082801818848,0.0,546.9943237304688,0.06224999949336052,432630823,18,17
827477062,2,292,39,0,73964972,73965,70846,460,625,8041,108,31,-10,4,28.59375,0.011969379149377346,0.02291596122086048,0.9946503043174744,19.38435935974121,-19.631988525390625,18.730112075805664,-6.9521636962890625,-6.290244102478027,-103.36351776123047,1500,1500,1249,1500,2000,1000,1000,1000,1309,1497,1823,1100,1564,1,1,1,1,1,1,1,0,1,1,0,0,stabilized_mix,-0.03248409926891327,-0.10317014157772064,-0.00035614153603091836,-0.004809608682990074,0.001441294327378273,0.001439349027350545,0.0,0.0,0.004809608682990074,-0.001441294327378273,0.02313421666622162,0.00693262554705143,0.02313421666622162,0.00693262554705143,0.0,0.0,0.0,0.0,1.0,0.02313421666622162,0.00693262554705143,0.2365499883890152,0.0,-0.0,-0.0,0.02313421666622162,0.00693262554705143,0.2365499883890152,0.002358223544433713,0.0007066894904710352,0.12857405841350555,-0.12695227563381195,0.1309322863817215,-0.12624558806419373,1.0471975803375244,-0.04903532192111015,0.4486280381679535,8.972559928894043,0.0,546.886962890625,0.06224999949336052,827939505,18,17
